HitCorrect,age,comments,descr_left,descr_left_condition,descr_right,descr_right_condition,endTime,enjoyment,experiment_id,languages,nonselected_descr_condition,picture,rt_trial,selected_descr_condition,selected_descr_position,selections,startDate,startTime,timeSpent,trial_number,submission_id,anon_id
404,35,,a gladiator movie dvd case on a travel luggage bag,caption_coco,"There is a DVD case that contains a film featuring gladiators, which is prominently placed on top of a piece of travel luggage. This luggage bag is being used for travel purposes and is currently showcasing this specific DVD case that pertains to the movie genre focused on gladiatorial combat.",caption_verbose,1746825920910,0,informativity.json,English,caption_coco,sampled_images_corrected_format_2/000000272097.jpg,14.728,caption_verbose,right,['right'],Fri May 09 2025 22:16:52 GMT+0100 (British Summer Time),1746825412834,8.467933333333333,1,-OPqw3CdUVUkxygX0wzq,0
404,35,,A young man brushing his teeth while wearing glasses.,caption_coco,"A young man wearing glasses is brushing his teeth, with a toothbrush in his mouth, while someone takes his picture.",caption_composite,1746825920910,0,informativity.json,English,caption_composite,sampled_images_corrected_format_2/000000104543.jpg,19.05,caption_coco,left,['left'],Fri May 09 2025 22:16:52 GMT+0100 (British Summer Time),1746825412834,8.467933333333333,2,-OPqw3CdUVUkxygX0wzq,0
404,35,,"A young child, who appears to be quite small in stature, is currently engaging in playtime activities inside a luggage bag that is placed on a smooth wooden floor surface. The child seems to be enjoying this playful moment in the comfortable confines of the bag, while the wooden floor serves as a solid and sturdy base for their imaginative adventures.",caption_verbose,"The image shows a child sitting inside a black bag or suitcase placed on a flat surface. The child has short hair and is wearing a white shirt. The background includes a bookshelf filled with various books, a blue basket, and multiple objects such as fans and boxes. There is also a piece of cardboard on the floor near the bag. The lighting in the room is bright.",caption_gpt4o,1746825920910,0,informativity.json,English,caption_verbose,sampled_images_corrected_format_2/000000233143.jpg,18.868,caption_gpt4o,right,['right'],Fri May 09 2025 22:16:52 GMT+0100 (British Summer Time),1746825412834,8.467933333333333,3,-OPqw3CdUVUkxygX0wzq,0
404,35,,"The image shows a man in a black long-sleeve shirt and black pants positioned on a pink mat. He is in a crawling pose with one hand on the ground and the other hand holding a piece of food, which he is bringing towards his mouth. There are crumbs on the mat near him. The background is gray.",caption_gpt4o,"A man is engaged in the physical activity of performing a push-up, which involves lowering and raising his body by using his arms in a repetitive motion. In the midst of completing this exercise, he takes a moment to take a bite of some food, which brings an interesting juxtaposition between his workout and the act of eating.",caption_verbose,1746825920910,0,informativity.json,English,caption_verbose,sampled_images_corrected_format_2/000000438186.jpg,14.128,caption_gpt4o,left,['left'],Fri May 09 2025 22:16:52 GMT+0100 (British Summer Time),1746825412834,8.467933333333333,4,-OPqw3CdUVUkxygX0wzq,0
404,35,,Many black and white cows are standing in a row,caption_coco,"A row of very cute black and white cows is lined up side by side, with baby cows standing next to them. This bunch of cattle is standing together, creating a pleasant scene of cows and their young.",caption_composite,1746825920910,0,informativity.json,English,caption_composite,sampled_images_corrected_format_2/000000032909.jpg,24.185,caption_coco,left,['left'],Fri May 09 2025 22:16:52 GMT+0100 (British Summer Time),1746825412834,8.467933333333333,5,-OPqw3CdUVUkxygX0wzq,0
404,35,,"The image features a man with gray hair, wearing a striped shirt. He is holding two white game controllers, one in each hand. The background consists of wooden paneling. The man's facial expression shows a slight smile, and he appears to be engaged with the controllers.",caption_gpt4o,a man wearing a gray shirt is playing a video game,caption_coco,1746825920910,0,informativity.json,English,caption_gpt4o,sampled_images_corrected_format_2/000000274977.jpg,19.646,caption_coco,right,['right'],Fri May 09 2025 22:16:52 GMT+0100 (British Summer Time),1746825412834,8.467933333333333,6,-OPqw3CdUVUkxygX0wzq,0
404,35,,"The image features a golden retriever lying on green grass. The dog is positioned to the right side of the frame, facing forward, with its tongue out. In front of the dog is a yellow frisbee. The background includes some trees with green foliage, and the area is well-lit, suggesting it is daytime. There is also a wooden fence visible in the distance.",caption_gpt4o,"A golden-colored dog is comfortably positioned on the grass in the yard, with its mouth wide open, suggesting a relaxed state.",caption_verbose,1746825920910,0,informativity.json,English,caption_gpt4o,sampled_images_corrected_format_2/000000293130.jpg,15.966,caption_verbose,right,['right'],Fri May 09 2025 22:16:52 GMT+0100 (British Summer Time),1746825412834,8.467933333333333,7,-OPqw3CdUVUkxygX0wzq,0
404,35,,"A tree filled with many birds under a blue sky features a group of large red birds, as well as several parakeets, perched in the top branches. These birds are sitting together, creating a lively scene among the treetops.",caption_composite,Many birds sit in the top branches of a tree. ,caption_coco,1746825920910,0,informativity.json,English,caption_coco,sampled_images_corrected_format_2/000000056134.jpg,16.147,caption_composite,left,['left'],Fri May 09 2025 22:16:52 GMT+0100 (British Summer Time),1746825412834,8.467933333333333,8,-OPqw3CdUVUkxygX0wzq,0
404,35,,"In a specific area characterized by the presence of lush green grass, there are two zebras that can be observed. They are situated in close proximity to a collection of trees, which adds a natural backdrop to the scene.",caption_verbose,Two zebras are in the grass near some trees.,caption_coco,1746825920910,0,informativity.json,English,caption_coco,sampled_images_corrected_format_2/000000053916.jpg,10.999,caption_verbose,left,['left'],Fri May 09 2025 22:16:52 GMT+0100 (British Summer Time),1746825412834,8.467933333333333,9,-OPqw3CdUVUkxygX0wzq,0
404,35,,"In the midst of a natural setting, there are two kites that are vividly decorated with a variety of bright and vibrant colors, and they have become ensnared among the branches of several trees.",caption_verbose,Two colorful kites are caught up in the trees. ,caption_coco,1746825920910,0,informativity.json,English,caption_coco,sampled_images_corrected_format_2/000000561714.jpg,11.267,caption_verbose,left,['left'],Fri May 09 2025 22:16:52 GMT+0100 (British Summer Time),1746825412834,8.467933333333333,10,-OPqw3CdUVUkxygX0wzq,0
404,35,,"A young boy is playing in the yard, engaging in the activity of throwing a Frisbee into the open space around him on a bright and sunny day. The weather is clear, providing a perfect outdoor environment for him to enjoy this recreational pastime.",caption_verbose,"A little boy is engaged in a game of frisbee, raring back with a red frisbee in a lush green field. He is actively tossing the frisbee across the yard on a sunny day, with the frisbee firmly in his hands as he prepares to throw.",caption_composite,1746825920910,0,informativity.json,English,caption_verbose,sampled_images_corrected_format_2/000000517468.jpg,23.048,caption_composite,right,['right'],Fri May 09 2025 22:16:52 GMT+0100 (British Summer Time),1746825412834,8.467933333333333,11,-OPqw3CdUVUkxygX0wzq,0
404,35,,"The image features a close-up view of an individual who is gripping a hot dog. This detail-oriented perspective allows for a clear focus on the person's hand as they hold the food item, providing insight into the scene where the hot dog is being prepared to be eaten or enjoyed.",caption_verbose,"A close-up image features a hot dog in a bun, wrapped in white paper and prominently smeared with an abundance of yellow mustard. The hot dog is held by a person, showcasing the vivid contrast between the glistening mustard and the bun.",caption_composite,1746825920910,0,informativity.json,English,caption_verbose,sampled_images_corrected_format_2/000000506873.jpg,10.098,caption_composite,right,['right'],Fri May 09 2025 22:16:52 GMT+0100 (British Summer Time),1746825412834,8.467933333333333,12,-OPqw3CdUVUkxygX0wzq,0
404,35,,"In a library setting, there is a canine companion of a deep black hue, commonly referred to as a black dog, that is present alongside its human owner. The two of them are located within the confines of the library, surrounded by books and the serene atmosphere that typically characterizes such a space dedicated to reading and learning.",caption_verbose,a black dog with its owner in the library,caption_coco,1746825920910,0,informativity.json,English,caption_coco,sampled_images_corrected_format_2/000000074001.jpg,22.232,caption_verbose,left,['left'],Fri May 09 2025 22:16:52 GMT+0100 (British Summer Time),1746825412834,8.467933333333333,13,-OPqw3CdUVUkxygX0wzq,0
404,35,,"A man is positioned in a skiing posture, gripping a pair of skiing poles firmly in his hands. He is actively engaged in the sport as he bends his knees and body forward while navigating down a snow-covered slope on his skis.",caption_verbose,"A man wearing a colorful outfit is skiing down a steep slope on a sunny day. He is crouched low, bending while holding skiing poles, as he slides down the hill in motion.",caption_composite,1746825920910,0,informativity.json,English,caption_verbose,sampled_images_corrected_format_2/000000469913.jpg,17.582,caption_composite,right,['right'],Fri May 09 2025 22:16:52 GMT+0100 (British Summer Time),1746825412834,8.467933333333333,14,-OPqw3CdUVUkxygX0wzq,0
404,35,,Two zebra standing next to each other on a dirt field.,caption_coco,"The image shows two zebras in a natural outdoor setting. One zebra is walking towards the right, while the other is facing away, near a log. The ground is sandy, and there are some wooden logs and tree stumps visible in the background. The zebras have distinctive black and white stripes.",caption_gpt4o,1746825920910,0,informativity.json,English,caption_coco,sampled_images_corrected_format_2/000000536716.jpg,14.351,caption_gpt4o,right,['right'],Fri May 09 2025 22:16:52 GMT+0100 (British Summer Time),1746825412834,8.467933333333333,15,-OPqw3CdUVUkxygX0wzq,0
404,35,,"In a sunny field, two brown bear cubs are play fighting and tussling together in the grass. They are seen wrestling near some rocks, rolling around and enjoying their time in the open. Their playful interactions showcase their youthful energy and curiosity as they engage in various playful antics.",caption_composite,"In a wide and open area, two young bears can be observed engaging in a playful fight with each other. These bears, full of youthful energy and enthusiasm, are wrestling and tumbling around as they seem to enjoy their time together in this expansive outdoor space. Their playful antics involve a variety of moves, as they interact in a way that is characteristic of their age and species.",caption_verbose,1746825920910,0,informativity.json,English,caption_verbose,sampled_images_corrected_format_2/000000377282.jpg,6.979,caption_composite,left,['left'],Fri May 09 2025 22:16:52 GMT+0100 (British Summer Time),1746825412834,8.467933333333333,16,-OPqw3CdUVUkxygX0wzq,0
404,35,,"The image shows a grassy field with several cows. There are two brown and white cows prominently standing in the foreground, and a few black and white cows nearby, some standing and others lying down. In the background, additional cows can be seen, and there are trees and shrubs surrounding the area. The grass appears lush and green, indicating a well-maintained pasture.",caption_gpt4o,A herd of cattle standing on a  lush green field.,caption_coco,1746825920910,0,informativity.json,English,caption_gpt4o,sampled_images_corrected_format_2/000000344897.jpg,5.381,caption_coco,right,['right'],Fri May 09 2025 22:16:52 GMT+0100 (British Summer Time),1746825412834,8.467933333333333,17,-OPqw3CdUVUkxygX0wzq,0
404,35,,"The image shows a man wearing a gray and white striped hooded sweatshirt and a baseball cap. He is outdoors, mid-motion, preparing to throw a frisbee. The background features a dirt path and sparse vegetation, suggesting a natural, open area. The lighting appears somewhat muted, indicating it may be in the late afternoon or evening.",caption_gpt4o,"A man is engaged in the activity of throwing a frisbee, and he is notably adorned with a baseball hat, which is positioned upon his head. The action of tossing the frisbee appears to be energetic, and his choice of headwear suggests a casual or sporty atmosphere in which this event is taking place.",caption_verbose,1746825920910,0,informativity.json,English,caption_verbose,sampled_images_corrected_format_2/000000403349.jpg,13.015,caption_gpt4o,left,['left'],Fri May 09 2025 22:16:52 GMT+0100 (British Summer Time),1746825412834,8.467933333333333,18,-OPqw3CdUVUkxygX0wzq,0
404,35,,"A lone giraffe walks across a lush green field, moving gracefully down the middle of a forest area. It is seen from a distance through trees, as it stands near a grove of tall trees, blending with the surrounding foliage while traversing the grass.",caption_composite,"A giraffe can be observed from afar, its tall and distinctive figure partially obscured by the surrounding trees that populate the landscape. The sighting occurs at a considerable distance, where the unique silhouette of the giraffe stands out against the backdrop of the vegetation, providing a glimpse into the natural habitat in which this remarkable animal resides.",caption_verbose,1746825920910,0,informativity.json,English,caption_verbose,sampled_images_corrected_format_2/000000345826.jpg,8.315,caption_composite,left,['left'],Fri May 09 2025 22:16:52 GMT+0100 (British Summer Time),1746825412834,8.467933333333333,19,-OPqw3CdUVUkxygX0wzq,0
404,35,,"A black bear is walking across a big field and is also seen in a very rocky area, demonstrating its ability to navigate both environments. The bear is standing on a rocky terrain, highlighting its presence in this rugged landscape.",caption_composite,"The image depicts a black bear standing on a rocky terrain. The bear has a thick fur coat and is facing slightly toward the right. The background consists of various rocks, some covered in moss or barnacles, and there is sparse grass in the area. The setting appears to be natural and rugged, with mixed textures from the rocks and the bear's fur.",caption_gpt4o,1746825920910,0,informativity.json,English,caption_gpt4o,sampled_images_corrected_format_2/000000289354.jpg,12.386,caption_composite,left,['left'],Fri May 09 2025 22:16:52 GMT+0100 (British Summer Time),1746825412834,8.467933333333333,20,-OPqw3CdUVUkxygX0wzq,0
404,35,,"A lone zebra with gold coloring is situated in an open field of grass, his natural habitat. The zebra is walking and looking around as he moves to his left, exploring the grassy area that surrounds him.",caption_composite,Zebra in its natural habitat going to his left.,caption_coco,1746825920910,0,informativity.json,English,caption_coco,sampled_images_corrected_format_2/000000251502.jpg,10.962,caption_composite,left,['left'],Fri May 09 2025 22:16:52 GMT+0100 (British Summer Time),1746825412834,8.467933333333333,21,-OPqw3CdUVUkxygX0wzq,0
404,35,,"The yellow plate features an assortment of food items, including slices of bread, an omelet, and a variety of fruits and vegetables such as oranges, apples, and tomatoes. This combination of healthy options presents a balanced meal on the plate.",caption_composite,"On a plate, there is a selection of various items that include several pieces of bread, as well as an assortment of fruits and vegetables. This arrangement presents a combination of different food types, showcasing both the carbohydrate-rich bread and the fresh produce in the form of fruits and vegetables, all placed neatly on the surface of the plate.",caption_verbose,1746825920910,0,informativity.json,English,caption_verbose,sampled_images_corrected_format_2/000000021397.jpg,19.082,caption_composite,left,['left'],Fri May 09 2025 22:16:52 GMT+0100 (British Summer Time),1746825412834,8.467933333333333,22,-OPqw3CdUVUkxygX0wzq,0
404,35,,"A surfer skillfully rides the crest of a wave, skillfully maneuvering their board to catch the powerful force of the ocean. As they glide along the surface, the surfer initiates a spinning motion, pivoting their body and the board around in a circular fashion, showcasing their agility and control within the dynamic and ever-changing environment of the sea.",caption_verbose,"The image shows a surfer riding a wave. The surfer is positioned on a surfboard, leaning back and turning towards the wave. The water is green with white foam at the crest of the wave. The background consists of more ocean and a muted sky. The surfer is wearing a wetsuit with visible branding and has a helmet on.",caption_gpt4o,1746825920910,0,informativity.json,English,caption_verbose,sampled_images_corrected_format_2/000000537300.jpg,54.014,caption_gpt4o,right,['right'],Fri May 09 2025 22:16:52 GMT+0100 (British Summer Time),1746825412834,8.467933333333333,23,-OPqw3CdUVUkxygX0wzq,0
404,35,,"A dog is in the process of enjoying a sandwich, which is being held by an individual. The person is gripping the sandwich with their hand, while the dog is positioned in a way that allows it to take bites or nibbles from the food item that is being offered to it.",caption_verbose,A black and white dog is being fed part of a sandwich by a person. The dog eagerly eats a piece of bread from the owner's hand as they feed it the remainder of the sandwich. The scene depicts the dog enjoying the sandwich while being held by the person.,caption_composite,1746825920910,0,informativity.json,English,caption_verbose,sampled_images_corrected_format_2/000000397161.jpg,7.783,caption_composite,right,['right'],Fri May 09 2025 22:16:52 GMT+0100 (British Summer Time),1746825412834,8.467933333333333,24,-OPqw3CdUVUkxygX0wzq,0
404,35,,Sausage burger with pickles and a side of greens,caption_coco,"The meal consists of a sausage sandwich served on a bun, accompanied by pickles, and it is complemented by a side dish featuring a bowl of greens, such as spinach. The entire presentation includes the sausage sandwich, pickles, and greens placed on paper, showcasing the combination of flavors and textures in the meal.",caption_composite,1746825920910,0,informativity.json,English,caption_composite,sampled_images_corrected_format_2/000000159924.jpg,4.596,caption_coco,left,['left'],Fri May 09 2025 22:16:52 GMT+0100 (British Summer Time),1746825412834,8.467933333333333,25,-OPqw3CdUVUkxygX0wzq,0
404,35,,"A small bird is perched on a bare branch of a tree, surrounded by dense brushy areas and dry grass. It stands atop the thorny limb, observing its surroundings from this elevated position.",caption_composite,"The image shows a small bird perched on a thin branch. The bird has a light brown body with a slightly darker crown on its head and a small, conical bill. The background consists of dry, brown grasses and twigs, creating a natural setting. The focus is primarily on the bird, which is positioned to the left side of the frame.",caption_gpt4o,1746825920910,0,informativity.json,English,caption_gpt4o,sampled_images_corrected_format_2/000000134605.jpg,21.115,caption_composite,left,['left'],Fri May 09 2025 22:16:52 GMT+0100 (British Summer Time),1746825412834,8.467933333333333,26,-OPqw3CdUVUkxygX0wzq,0
404,35,,"A group of three zebras is walking next to each other in a fenced-in area that features a grass field. Nearby, some zebras are running around together close to four green poles. Within this enclosed area, the trio of zebras galloped away from a four-wheeled imposter zebra, creating a lively scene as they navigate the space.",caption_composite,"The image shows two zebras running in a grassy area. They have distinct black and white stripes. In the background, there are tall green poles, and a fenced area is visible. A vehicle, painted with a similar black and white striped pattern, is parked nearby. The sky is clear, with some clouds, and there are trees in the background.",caption_gpt4o,1746825920910,0,informativity.json,English,caption_gpt4o,sampled_images_corrected_format_2/000000489995.jpg,17.347,caption_composite,left,['left'],Fri May 09 2025 22:16:52 GMT+0100 (British Summer Time),1746825412834,8.467933333333333,27,-OPqw3CdUVUkxygX0wzq,0
404,35,,A cat laying on top of a wooden bench in a park.,caption_coco,"A domestic cat is positioned comfortably on the surface of a wooden bench that is situated within a park environment. The cat is resting on top of the bench, which is crafted from wood, and this bench is located in an area designated as a park, indicating a space that is typically used for recreational activities, relaxation, or enjoying nature.",caption_verbose,1746825920910,0,informativity.json,English,caption_verbose,sampled_images_corrected_format_2/000000337435.jpg,10.384,caption_coco,left,"['right', 'left']",Fri May 09 2025 22:16:52 GMT+0100 (British Summer Time),1746825412834,8.467933333333333,28,-OPqw3CdUVUkxygX0wzq,0
404,35,,"A large adult bear, accompanied by two of its young cubs, is making its way through a flowing river. The bear, being the mother or protector, is leading the two small cubs as they carefully wade through the water together, navigating the currents and aquatic surroundings.",caption_verbose,"The image shows a brown bear walking through shallow water, accompanied by two smaller bear cubs. The background features green foliage, with trees partially visible. There are rocks in the water, and the bear and cubs appear to be creating ripples as they move. The overall setting is a natural environment, likely along a river or stream.",caption_gpt4o,1746825920910,0,informativity.json,English,caption_gpt4o,sampled_images_corrected_format_2/000000434602.jpg,20.231,caption_verbose,left,['left'],Fri May 09 2025 22:16:52 GMT+0100 (British Summer Time),1746825412834,8.467933333333333,29,-OPqw3CdUVUkxygX0wzq,0
404,35,,"The image features a horse standing in a grassy field. The horse is wearing a striped blanket. Surrounding the field, there are several fence posts, and the fencing encloses a rectangular area. In the background, there are greenhouses and trees. The sky is mostly cloudy with some rays of sunlight visible. There are utility poles in the distance.",caption_gpt4o,A horse in a field has a striped blanket on it.,caption_coco,1746825920910,0,informativity.json,English,caption_coco,sampled_images_corrected_format_2/000000526035.jpg,10.737,caption_gpt4o,left,['left'],Fri May 09 2025 22:16:52 GMT+0100 (British Summer Time),1746825412834,8.467933333333333,30,-OPqw3CdUVUkxygX0wzq,0
1,25,,"A zebra is currently situated within its natural habitat, which is characterized by a landscape that typically includes grasslands, savannas, or similar environments conducive to their lifestyle. In this particular instance, the zebra is moving towards its left, indicating a specific direction of travel as it navigates through its surroundings.",caption_verbose,The image depicts a zebra walking through a grassy area. The zebra has distinctive black and white stripes and is situated in a landscape that includes tall grass and some shrubs. The background shows blurred green vegetation and a clear sky. The ground appears dry and reddish-brown in color. The zebra's posture is upright as it moves along the terrain.,caption_gpt4o,1746825939032,2,informativity.json,English,caption_verbose,sampled_images_corrected_format_2/000000251502.jpg,57.742,caption_gpt4o,right,['right'],Fri May 09 2025 14:18:26 GMT-0700 (Pacific Daylight Time),1746825506668,7.206066666666667,1,-OPqw84soROJOClVFz7H,1
1,25,,A golden dog laying in the yard with its mouth open.,caption_coco,"The image features a golden retriever lying on green grass. The dog is positioned to the right side of the frame, facing forward, with its tongue out. In front of the dog is a yellow frisbee. The background includes some trees with green foliage, and the area is well-lit, suggesting it is daytime. There is also a wooden fence visible in the distance.",caption_gpt4o,1746825939032,2,informativity.json,English,caption_gpt4o,sampled_images_corrected_format_2/000000293130.jpg,13.41,caption_coco,left,['left'],Fri May 09 2025 14:18:26 GMT-0700 (Pacific Daylight Time),1746825506668,7.206066666666667,2,-OPqw84soROJOClVFz7H,1
1,25,,"In a specific area characterized by the presence of lush green grass, there are two zebras that can be observed. They are situated in close proximity to a collection of trees, which adds a natural backdrop to the scene.",caption_verbose,Two zebras are in the grass near some trees.,caption_coco,1746825939032,2,informativity.json,English,caption_verbose,sampled_images_corrected_format_2/000000053916.jpg,8.013,caption_coco,right,['right'],Fri May 09 2025 14:18:26 GMT-0700 (Pacific Daylight Time),1746825506668,7.206066666666667,3,-OPqw84soROJOClVFz7H,1
1,25,,"A young man is surfing in the ocean waves, skillfully catching a wave and spinning around with agility. This lad rides the wave like a surfboard champion, demonstrating his prowess as he navigates the water. Overall, the scene depicts a man surfing a wave in the ocean, embodying the dynamics of the sport.",caption_composite,A surfer catches a wave and spins around.,caption_coco,1746825939032,2,informativity.json,English,caption_composite,sampled_images_corrected_format_2/000000537300.jpg,5.306,caption_coco,right,['right'],Fri May 09 2025 14:18:26 GMT-0700 (Pacific Daylight Time),1746825506668,7.206066666666667,4,-OPqw84soROJOClVFz7H,1
1,25,,"A dog is in the process of enjoying a sandwich, which is being held by an individual. The person is gripping the sandwich with their hand, while the dog is positioned in a way that allows it to take bites or nibbles from the food item that is being offered to it.",caption_verbose,A black and white dog is being fed part of a sandwich by a person. The dog eagerly eats a piece of bread from the owner's hand as they feed it the remainder of the sandwich. The scene depicts the dog enjoying the sandwich while being held by the person.,caption_composite,1746825939032,2,informativity.json,English,caption_composite,sampled_images_corrected_format_2/000000397161.jpg,36.679,caption_verbose,left,['left'],Fri May 09 2025 14:18:26 GMT-0700 (Pacific Daylight Time),1746825506668,7.206066666666667,5,-OPqw84soROJOClVFz7H,1
1,25,,Many black and white cows are standing in a row,caption_coco,"A row of very cute black and white cows is lined up side by side, with baby cows standing next to them. This bunch of cattle is standing together, creating a pleasant scene of cows and their young.",caption_composite,1746825939032,2,informativity.json,English,caption_coco,sampled_images_corrected_format_2/000000032909.jpg,20.012,caption_composite,right,"['left', 'right']",Fri May 09 2025 14:18:26 GMT-0700 (Pacific Daylight Time),1746825506668,7.206066666666667,6,-OPqw84soROJOClVFz7H,1
1,25,,"In a wide and open area, two young bears can be observed engaging in a playful fight with each other. These bears, full of youthful energy and enthusiasm, are wrestling and tumbling around as they seem to enjoy their time together in this expansive outdoor space. Their playful antics involve a variety of moves, as they interact in a way that is characteristic of their age and species.",caption_verbose,"The image shows two bears engaged in physical interaction on a grassy area. One bear is positioned to the left, exhibiting a lighter brown color, while the other bear, located to the right, is darker. They are situated near a rocky outcropping, with tall grass surrounding them. The setting appears to be natural and outdoors.",caption_gpt4o,1746825939032,2,informativity.json,English,caption_verbose,sampled_images_corrected_format_2/000000377282.jpg,8.787,caption_gpt4o,right,['right'],Fri May 09 2025 14:18:26 GMT-0700 (Pacific Daylight Time),1746825506668,7.206066666666667,7,-OPqw84soROJOClVFz7H,1
1,25,,a black bear walks across a big field,caption_coco,"The image depicts a black bear standing on a rocky terrain. The bear has a thick fur coat and is facing slightly toward the right. The background consists of various rocks, some covered in moss or barnacles, and there is sparse grass in the area. The setting appears to be natural and rugged, with mixed textures from the rocks and the bear's fur.",caption_gpt4o,1746825939032,2,informativity.json,English,caption_coco,sampled_images_corrected_format_2/000000289354.jpg,10.126,caption_gpt4o,right,"['left', 'right']",Fri May 09 2025 14:18:26 GMT-0700 (Pacific Daylight Time),1746825506668,7.206066666666667,8,-OPqw84soROJOClVFz7H,1
1,25,,"On a plate, there is a selection of various items that include several pieces of bread, as well as an assortment of fruits and vegetables. This arrangement presents a combination of different food types, showcasing both the carbohydrate-rich bread and the fresh produce in the form of fruits and vegetables, all placed neatly on the surface of the plate.",caption_verbose,"The image shows a yellow plate containing a meal. On the plate, there is an omelet garnished with parsley, pieces of light green pear, several wedges of orange, and slices of tomato. To the side, there are two slices of brown bread. The background features a patterned tablecloth with a woven design.",caption_gpt4o,1746825939032,2,informativity.json,English,caption_verbose,sampled_images_corrected_format_2/000000021397.jpg,18.93,caption_gpt4o,right,['right'],Fri May 09 2025 14:18:26 GMT-0700 (Pacific Daylight Time),1746825506668,7.206066666666667,9,-OPqw84soROJOClVFz7H,1
1,25,,a small child playing in a luggage bag on a wooden floor,caption_coco,"A young child, who appears to be quite small in stature, is currently engaging in playtime activities inside a luggage bag that is placed on a smooth wooden floor surface. The child seems to be enjoying this playful moment in the comfortable confines of the bag, while the wooden floor serves as a solid and sturdy base for their imaginative adventures.",caption_verbose,1746825939032,2,informativity.json,English,caption_verbose,sampled_images_corrected_format_2/000000233143.jpg,13.44,caption_coco,left,['left'],Fri May 09 2025 14:18:26 GMT-0700 (Pacific Daylight Time),1746825506668,7.206066666666667,10,-OPqw84soROJOClVFz7H,1
1,25,,"The image shows a tree, likely a eucalyptus, with numerous birds perched on its branches. The birds appear to be predominantly pink with some black, indicating they could be a species of cockatoo or similar. The background is a clear blue sky, and the tree has green leaves. Some birds are in motion, while others are stationary among the branches.",caption_gpt4o,"A significant number of birds can be observed perched upon the uppermost branches of a tree, where they seem to find a suitable place to rest or perhaps to survey their surroundings from an elevated position among the foliage.",caption_verbose,1746825939032,2,informativity.json,English,caption_gpt4o,sampled_images_corrected_format_2/000000056134.jpg,4.611,caption_verbose,right,['right'],Fri May 09 2025 14:18:26 GMT-0700 (Pacific Daylight Time),1746825506668,7.206066666666667,11,-OPqw84soROJOClVFz7H,1
1,25,,"The image shows a small bird perched on a thin branch. The bird has a light brown body with a slightly darker crown on its head and a small, conical bill. The background consists of dry, brown grasses and twigs, creating a natural setting. The focus is primarily on the bird, which is positioned to the left side of the frame.",caption_gpt4o,Small bird standing on branch in dense brushy area.,caption_coco,1746825939032,2,informativity.json,English,caption_gpt4o,sampled_images_corrected_format_2/000000134605.jpg,3.916,caption_coco,right,['right'],Fri May 09 2025 14:18:26 GMT-0700 (Pacific Daylight Time),1746825506668,7.206066666666667,12,-OPqw84soROJOClVFz7H,1
1,25,,"A group of three zebras is walking next to each other in a fenced-in area that features a grass field. Nearby, some zebras are running around together close to four green poles. Within this enclosed area, the trio of zebras galloped away from a four-wheeled imposter zebra, creating a lively scene as they navigate the space.",caption_composite,"The image shows two zebras running in a grassy area. They have distinct black and white stripes. In the background, there are tall green poles, and a fenced area is visible. A vehicle, painted with a similar black and white striped pattern, is parked nearby. The sky is clear, with some clouds, and there are trees in the background.",caption_gpt4o,1746825939032,2,informativity.json,English,caption_gpt4o,sampled_images_corrected_format_2/000000489995.jpg,9.983,caption_composite,left,['left'],Fri May 09 2025 14:18:26 GMT-0700 (Pacific Daylight Time),1746825506668,7.206066666666667,13,-OPqw84soROJOClVFz7H,1
1,25,,"In the midst of a natural setting, there are two kites that are vividly decorated with a variety of bright and vibrant colors, and they have become ensnared among the branches of several trees.",caption_verbose,Two colorful kites are caught up in the trees. ,caption_coco,1746825939032,2,informativity.json,English,caption_verbose,sampled_images_corrected_format_2/000000561714.jpg,5.433,caption_coco,right,['right'],Fri May 09 2025 14:18:26 GMT-0700 (Pacific Daylight Time),1746825506668,7.206066666666667,14,-OPqw84soROJOClVFz7H,1
1,25,,"A large group of cattle, consisting of numerous individuals, can be observed standing together in a vibrant and lush green field that is flourishing with healthy grass. The field provides a rich and verdant landscape that enhances the appearance of the cattle, who are positioned across the area in a manner that suggests they are comfortably grazing or simply resting in this picturesque environment.",caption_verbose,"The image shows a grassy field with several cows. There are two brown and white cows prominently standing in the foreground, and a few black and white cows nearby, some standing and others lying down. In the background, additional cows can be seen, and there are trees and shrubs surrounding the area. The grass appears lush and green, indicating a well-maintained pasture.",caption_gpt4o,1746825939032,2,informativity.json,English,caption_verbose,sampled_images_corrected_format_2/000000344897.jpg,13.427,caption_gpt4o,right,['right'],Fri May 09 2025 14:18:26 GMT-0700 (Pacific Daylight Time),1746825506668,7.206066666666667,15,-OPqw84soROJOClVFz7H,1
1,25,,"A young man is engaged in the act of brushing his teeth, performing this daily hygiene routine while also wearing a pair of glasses that rest upon his nose.",caption_verbose,A young man brushing his teeth while wearing glasses.,caption_coco,1746825939032,2,informativity.json,English,caption_verbose,sampled_images_corrected_format_2/000000104543.jpg,5.818,caption_coco,right,['right'],Fri May 09 2025 14:18:26 GMT-0700 (Pacific Daylight Time),1746825506668,7.206066666666667,16,-OPqw84soROJOClVFz7H,1
1,25,,"In a spacious open area designated as a field, there exists a horse that is currently wearing a blanket featuring a striped pattern. This particular blanket is draped over the horse's body, providing it with an added layer of covering while it remains in the expansive setting of the field.",caption_verbose,"The image features a horse standing in a grassy field. The horse is wearing a striped blanket. Surrounding the field, there are several fence posts, and the fencing encloses a rectangular area. In the background, there are greenhouses and trees. The sky is mostly cloudy with some rays of sunlight visible. There are utility poles in the distance.",caption_gpt4o,1746825939032,2,informativity.json,English,caption_gpt4o,sampled_images_corrected_format_2/000000526035.jpg,5.892,caption_verbose,left,['left'],Fri May 09 2025 14:18:26 GMT-0700 (Pacific Daylight Time),1746825506668,7.206066666666667,17,-OPqw84soROJOClVFz7H,1
1,25,,"The image shows a plate with a sandwich and a side of collard greens. The sandwich consists of sliced sausage placed on a white bread bun, topped with pickle slices. Next to the sandwich, there is a small bowl of dark green collard greens. The items are presented on a paper with a printed logo.",caption_gpt4o,"This meal consists of a burger made from sausage, which serves as the primary protein component, and it is accompanied by pickles that add a tangy flavor. Additionally, on the side, there is a serving of greens, which may include a variety of leafy vegetables, providing a fresh and healthy contrast to the rich and savory sausage burger.",caption_verbose,1746825939032,2,informativity.json,English,caption_verbose,sampled_images_corrected_format_2/000000159924.jpg,5.72,caption_gpt4o,left,['left'],Fri May 09 2025 14:18:26 GMT-0700 (Pacific Daylight Time),1746825506668,7.206066666666667,18,-OPqw84soROJOClVFz7H,1
1,25,,"A small grey striped cat is sleeping on a wooden bench in a park, laying comfortably and enjoying the outdoor environment. The bench is situated outside, providing a serene setting for the cat’s rest, and a close-up view reveals the cat’s relaxed posture as it peacefully dozes off.",caption_composite,A cat laying on top of a wooden bench in a park.,caption_coco,1746825939032,2,informativity.json,English,caption_composite,sampled_images_corrected_format_2/000000337435.jpg,4.563,caption_coco,right,['right'],Fri May 09 2025 14:18:26 GMT-0700 (Pacific Daylight Time),1746825506668,7.206066666666667,19,-OPqw84soROJOClVFz7H,1
1,25,,"The image shows a skier in motion on a snowy slope. The skier is wearing a blue and green outfit with a helmet and goggles, and the skis are black. There are two poles held in the skier's hands, matching the outfit's colors. The ski slope features blue markings on the surface. A netting structure is visible in the background.",caption_gpt4o,a man holding skiing poles bending as he ski,caption_coco,1746825939032,2,informativity.json,English,caption_gpt4o,sampled_images_corrected_format_2/000000469913.jpg,5.11,caption_coco,right,['right'],Fri May 09 2025 14:18:26 GMT-0700 (Pacific Daylight Time),1746825506668,7.206066666666667,20,-OPqw84soROJOClVFz7H,1
1,25,,"The image features a hot dog placed inside a bun. The bun is light in color and appears soft, partially wrapped in white paper. A sausage is visible within the bun, and a thick line of yellow mustard is applied along the top of the sausage. The hand holding the hot dog is partially visible in the bottom left of the image.",caption_gpt4o,a close up of a person holding a hot dog ,caption_coco,1746825939032,2,informativity.json,English,caption_gpt4o,sampled_images_corrected_format_2/000000506873.jpg,5.847,caption_coco,right,['right'],Fri May 09 2025 14:18:26 GMT-0700 (Pacific Daylight Time),1746825506668,7.206066666666667,21,-OPqw84soROJOClVFz7H,1
1,25,,"A lone giraffe walks across a lush green field, moving gracefully down the middle of a forest area. It is seen from a distance through trees, as it stands near a grove of tall trees, blending with the surrounding foliage while traversing the grass.",caption_composite,"A giraffe can be observed from afar, its tall and distinctive figure partially obscured by the surrounding trees that populate the landscape. The sighting occurs at a considerable distance, where the unique silhouette of the giraffe stands out against the backdrop of the vegetation, providing a glimpse into the natural habitat in which this remarkable animal resides.",caption_verbose,1746825939032,2,informativity.json,English,caption_verbose,sampled_images_corrected_format_2/000000345826.jpg,4.48,caption_composite,left,['left'],Fri May 09 2025 14:18:26 GMT-0700 (Pacific Daylight Time),1746825506668,7.206066666666667,22,-OPqw84soROJOClVFz7H,1
1,25,,"The image shows a black suitcase with a textured surface. It is positioned on a pink carpet. Resting on top of the suitcase is a DVD case for the film ""Gladiator."" The DVD case is slightly angled, displaying the cover art prominently. There are no other objects or features visible in the image.",caption_gpt4o,a gladiator movie dvd case on a travel luggage bag,caption_coco,1746825939032,2,informativity.json,English,caption_gpt4o,sampled_images_corrected_format_2/000000272097.jpg,8.531,caption_coco,right,['right'],Fri May 09 2025 14:18:26 GMT-0700 (Pacific Daylight Time),1746825506668,7.206066666666667,23,-OPqw84soROJOClVFz7H,1
1,25,,"A man is performing a one-handed push-up while simultaneously eating, balancing himself on one arm as he holds his body up. He is positioned on a mat, and during this exercise, he takes a bite of some food, demonstrating his ability to combine physical activity with eating.",caption_composite,"The image shows a man in a black long-sleeve shirt and black pants positioned on a pink mat. He is in a crawling pose with one hand on the ground and the other hand holding a piece of food, which he is bringing towards his mouth. There are crumbs on the mat near him. The background is gray.",caption_gpt4o,1746825939032,2,informativity.json,English,caption_gpt4o,sampled_images_corrected_format_2/000000438186.jpg,5.028,caption_composite,left,['left'],Fri May 09 2025 14:18:26 GMT-0700 (Pacific Daylight Time),1746825506668,7.206066666666667,24,-OPqw84soROJOClVFz7H,1
1,25,,"The image shows a young boy wearing a red t-shirt and black pants. He is in a grassy area, with a fence visible in the background. The boy appears to be in the motion of throwing something. In the background, there are stacked logs and some trees. The ground is green and well-maintained, and the lighting suggests it is a bright day.",caption_gpt4o,"A little boy is engaged in a game of frisbee, raring back with a red frisbee in a lush green field. He is actively tossing the frisbee across the yard on a sunny day, with the frisbee firmly in his hands as he prepares to throw.",caption_composite,1746825939032,2,informativity.json,English,caption_gpt4o,sampled_images_corrected_format_2/000000517468.jpg,2.802,caption_composite,right,['right'],Fri May 09 2025 14:18:26 GMT-0700 (Pacific Daylight Time),1746825506668,7.206066666666667,25,-OPqw84soROJOClVFz7H,1
1,25,,a black dog with its owner in the library,caption_coco,"A small black spaniel-type dog is being petted by its owner in front of a bookshelf in a library or house setting. The person is engaging with the dog, providing affection while surrounded by a collection of books on the shelves nearby.",caption_composite,1746825939032,2,informativity.json,English,caption_composite,sampled_images_corrected_format_2/000000074001.jpg,4.141,caption_coco,left,['left'],Fri May 09 2025 14:18:26 GMT-0700 (Pacific Daylight Time),1746825506668,7.206066666666667,26,-OPqw84soROJOClVFz7H,1
1,25,,"The image shows a man wearing a gray and white striped hooded sweatshirt and a baseball cap. He is outdoors, mid-motion, preparing to throw a frisbee. The background features a dirt path and sparse vegetation, suggesting a natural, open area. The lighting appears somewhat muted, indicating it may be in the late afternoon or evening.",caption_gpt4o,"A man wearing a baseball hat and a jacket is standing in a sandy area, poised to throw a frisbee. He is near a road, preparing for the toss while maintaining a casual stance.",caption_composite,1746825939032,2,informativity.json,English,caption_gpt4o,sampled_images_corrected_format_2/000000403349.jpg,3.208,caption_composite,right,['right'],Fri May 09 2025 14:18:26 GMT-0700 (Pacific Daylight Time),1746825506668,7.206066666666667,27,-OPqw84soROJOClVFz7H,1
1,25,,"The image shows two zebras in a natural outdoor setting. One zebra is walking towards the right, while the other is facing away, near a log. The ground is sandy, and there are some wooden logs and tree stumps visible in the background. The zebras have distinctive black and white stripes.",caption_gpt4o,"Two zebras stand next to each other on a dirt field, while a couple of other zebras explore in the sand next to some chopped wood. In a zoo setting, zebras wander around their pen, with two of them walking around as well. Among the group, baby zebras are also present, moving around to explore their environment.",caption_composite,1746825939032,2,informativity.json,English,caption_composite,sampled_images_corrected_format_2/000000536716.jpg,6.05,caption_gpt4o,left,['left'],Fri May 09 2025 14:18:26 GMT-0700 (Pacific Daylight Time),1746825506668,7.206066666666667,28,-OPqw84soROJOClVFz7H,1
1,25,,"The image features a man with gray hair, wearing a striped shirt. He is holding two white game controllers, one in each hand. The background consists of wooden paneling. The man's facial expression shows a slight smile, and he appears to be engaged with the controllers.",caption_gpt4o,An older man wearing a gray shirt is holding a Wii remote and smiling while playing a video game.,caption_composite,1746825939032,2,informativity.json,English,caption_gpt4o,sampled_images_corrected_format_2/000000274977.jpg,7.366,caption_composite,right,['right'],Fri May 09 2025 14:18:26 GMT-0700 (Pacific Daylight Time),1746825506668,7.206066666666667,29,-OPqw84soROJOClVFz7H,1
1,25,,"A large adult bear, accompanied by two of its young cubs, is making its way through a flowing river. The bear, being the mother or protector, is leading the two small cubs as they carefully wade through the water together, navigating the currents and aquatic surroundings.",caption_verbose,"A brown bear, accompanied by her two young cubs, is walking across a shallow river. The trio of bears is wading through the water, with the mother bear leading the way as they navigate the river's flow.",caption_composite,1746825939032,2,informativity.json,English,caption_verbose,sampled_images_corrected_format_2/000000434602.jpg,4.87,caption_composite,right,['right'],Fri May 09 2025 14:18:26 GMT-0700 (Pacific Daylight Time),1746825506668,7.206066666666667,30,-OPqw84soROJOClVFz7H,1
1,55,"I greatly enjoyed the study, a good interface. thanks!",A fenced in area with a grass field and three zebra together near four green poles.,caption_coco,"A group of three zebras is walking next to each other in a fenced-in area that features a grass field. Nearby, some zebras are running around together close to four green poles. Within this enclosed area, the trio of zebras galloped away from a four-wheeled imposter zebra, creating a lively scene as they navigate the space.",caption_composite,1746825961833,2,informativity.json,English,caption_composite,sampled_images_corrected_format_2/000000489995.jpg,12.329,caption_coco,left,['left'],Fri May 09 2025 22:16:45 GMT+0100 (British Summer Time),1746825405095,9.278966666666667,1,-OPqwDGM-UbMZpqrsat8,2
1,55,"I greatly enjoyed the study, a good interface. thanks!",Sausage burger with pickles and a side of greens,caption_coco,"The meal consists of a sausage sandwich served on a bun, accompanied by pickles, and it is complemented by a side dish featuring a bowl of greens, such as spinach. The entire presentation includes the sausage sandwich, pickles, and greens placed on paper, showcasing the combination of flavors and textures in the meal.",caption_composite,1746825961833,2,informativity.json,English,caption_composite,sampled_images_corrected_format_2/000000159924.jpg,22.654,caption_coco,left,['left'],Fri May 09 2025 22:16:45 GMT+0100 (British Summer Time),1746825405095,9.278966666666667,2,-OPqwDGM-UbMZpqrsat8,2
1,55,"I greatly enjoyed the study, a good interface. thanks!","A lone zebra with gold coloring is situated in an open field of grass, his natural habitat. The zebra is walking and looking around as he moves to his left, exploring the grassy area that surrounds him.",caption_composite,Zebra in its natural habitat going to his left.,caption_coco,1746825961833,2,informativity.json,English,caption_composite,sampled_images_corrected_format_2/000000251502.jpg,11.366,caption_coco,right,['right'],Fri May 09 2025 22:16:45 GMT+0100 (British Summer Time),1746825405095,9.278966666666667,3,-OPqwDGM-UbMZpqrsat8,2
1,55,"I greatly enjoyed the study, a good interface. thanks!","The image shows a skier in motion on a snowy slope. The skier is wearing a blue and green outfit with a helmet and goggles, and the skis are black. There are two poles held in the skier's hands, matching the outfit's colors. The ski slope features blue markings on the surface. A netting structure is visible in the background.",caption_gpt4o,"A man is positioned in a skiing posture, gripping a pair of skiing poles firmly in his hands. He is actively engaged in the sport as he bends his knees and body forward while navigating down a snow-covered slope on his skis.",caption_verbose,1746825961833,2,informativity.json,English,caption_verbose,sampled_images_corrected_format_2/000000469913.jpg,33.96,caption_gpt4o,left,['left'],Fri May 09 2025 22:16:45 GMT+0100 (British Summer Time),1746825405095,9.278966666666667,4,-OPqwDGM-UbMZpqrsat8,2
1,55,"I greatly enjoyed the study, a good interface. thanks!","The image shows a small bird perched on a thin branch. The bird has a light brown body with a slightly darker crown on its head and a small, conical bill. The background consists of dry, brown grasses and twigs, creating a natural setting. The focus is primarily on the bird, which is positioned to the left side of the frame.",caption_gpt4o,"A small bird is perched on a bare branch of a tree, surrounded by dense brushy areas and dry grass. It stands atop the thorny limb, observing its surroundings from this elevated position.",caption_composite,1746825961833,2,informativity.json,English,caption_composite,sampled_images_corrected_format_2/000000134605.jpg,15.997,caption_gpt4o,left,['left'],Fri May 09 2025 22:16:45 GMT+0100 (British Summer Time),1746825405095,9.278966666666667,5,-OPqwDGM-UbMZpqrsat8,2
1,55,"I greatly enjoyed the study, a good interface. thanks!","A large group of cattle, consisting of numerous individuals, can be observed standing together in a vibrant and lush green field that is flourishing with healthy grass. The field provides a rich and verdant landscape that enhances the appearance of the cattle, who are positioned across the area in a manner that suggests they are comfortably grazing or simply resting in this picturesque environment.",caption_verbose,"The image shows a grassy field with several cows. There are two brown and white cows prominently standing in the foreground, and a few black and white cows nearby, some standing and others lying down. In the background, additional cows can be seen, and there are trees and shrubs surrounding the area. The grass appears lush and green, indicating a well-maintained pasture.",caption_gpt4o,1746825961833,2,informativity.json,English,caption_verbose,sampled_images_corrected_format_2/000000344897.jpg,10.675,caption_gpt4o,right,['right'],Fri May 09 2025 22:16:45 GMT+0100 (British Summer Time),1746825405095,9.278966666666667,6,-OPqwDGM-UbMZpqrsat8,2
1,55,"I greatly enjoyed the study, a good interface. thanks!","A lone giraffe walks across a lush green field, moving gracefully down the middle of a forest area. It is seen from a distance through trees, as it stands near a grove of tall trees, blending with the surrounding foliage while traversing the grass.",caption_composite,A giraffe seen from a distance through trees,caption_coco,1746825961833,2,informativity.json,English,caption_composite,sampled_images_corrected_format_2/000000345826.jpg,5.862,caption_coco,right,['right'],Fri May 09 2025 22:16:45 GMT+0100 (British Summer Time),1746825405095,9.278966666666667,7,-OPqwDGM-UbMZpqrsat8,2
1,55,"I greatly enjoyed the study, a good interface. thanks!","A man is engaged in the physical activity of performing a push-up, which involves lowering and raising his body by using his arms in a repetitive motion. In the midst of completing this exercise, he takes a moment to take a bite of some food, which brings an interesting juxtaposition between his workout and the act of eating.",caption_verbose,"A man is performing a one-handed push-up while simultaneously eating, balancing himself on one arm as he holds his body up. He is positioned on a mat, and during this exercise, he takes a bite of some food, demonstrating his ability to combine physical activity with eating.",caption_composite,1746825961833,2,informativity.json,English,caption_verbose,sampled_images_corrected_format_2/000000438186.jpg,17.055,caption_composite,right,['right'],Fri May 09 2025 22:16:45 GMT+0100 (British Summer Time),1746825405095,9.278966666666667,8,-OPqwDGM-UbMZpqrsat8,2
1,55,"I greatly enjoyed the study, a good interface. thanks!",A horse in a field has a striped blanket on it.,caption_coco,"A brown horse is standing in a fenced area, wearing a striped horse blanket. This horse is positioned in the grass of a field, next to a fence, and is shown within a pen. The blanket covers the horse as it stands still in its designated space.",caption_composite,1746825961833,2,informativity.json,English,caption_coco,sampled_images_corrected_format_2/000000526035.jpg,12.543,caption_composite,right,"['left', 'right']",Fri May 09 2025 22:16:45 GMT+0100 (British Summer Time),1746825405095,9.278966666666667,9,-OPqwDGM-UbMZpqrsat8,2
1,55,"I greatly enjoyed the study, a good interface. thanks!","The image features a hot dog placed inside a bun. The bun is light in color and appears soft, partially wrapped in white paper. A sausage is visible within the bun, and a thick line of yellow mustard is applied along the top of the sausage. The hand holding the hot dog is partially visible in the bottom left of the image.",caption_gpt4o,"A close-up image features a hot dog in a bun, wrapped in white paper and prominently smeared with an abundance of yellow mustard. The hot dog is held by a person, showcasing the vivid contrast between the glistening mustard and the bun.",caption_composite,1746825961833,2,informativity.json,English,caption_composite,sampled_images_corrected_format_2/000000506873.jpg,12.552,caption_gpt4o,left,['left'],Fri May 09 2025 22:16:45 GMT+0100 (British Summer Time),1746825405095,9.278966666666667,10,-OPqwDGM-UbMZpqrsat8,2
1,55,"I greatly enjoyed the study, a good interface. thanks!","A domestic cat is positioned comfortably on the surface of a wooden bench that is situated within a park environment. The cat is resting on top of the bench, which is crafted from wood, and this bench is located in an area designated as a park, indicating a space that is typically used for recreational activities, relaxation, or enjoying nature.",caption_verbose,"A small grey striped cat is sleeping on a wooden bench in a park, laying comfortably and enjoying the outdoor environment. The bench is situated outside, providing a serene setting for the cat’s rest, and a close-up view reveals the cat’s relaxed posture as it peacefully dozes off.",caption_composite,1746825961833,2,informativity.json,English,caption_composite,sampled_images_corrected_format_2/000000337435.jpg,20.104,caption_verbose,left,['left'],Fri May 09 2025 22:16:45 GMT+0100 (British Summer Time),1746825405095,9.278966666666667,11,-OPqwDGM-UbMZpqrsat8,2
1,55,"I greatly enjoyed the study, a good interface. thanks!","A young man is surfing in the ocean waves, skillfully catching a wave and spinning around with agility. This lad rides the wave like a surfboard champion, demonstrating his prowess as he navigates the water. Overall, the scene depicts a man surfing a wave in the ocean, embodying the dynamics of the sport.",caption_composite,A surfer catches a wave and spins around.,caption_coco,1746825961833,2,informativity.json,English,caption_composite,sampled_images_corrected_format_2/000000537300.jpg,10.053,caption_coco,right,['right'],Fri May 09 2025 22:16:45 GMT+0100 (British Summer Time),1746825405095,9.278966666666667,12,-OPqwDGM-UbMZpqrsat8,2
1,55,"I greatly enjoyed the study, a good interface. thanks!","In the midst of a natural setting, there are two kites that are vividly decorated with a variety of bright and vibrant colors, and they have become ensnared among the branches of several trees.",caption_verbose,"In a row of bare trees, two colorful kites are caught, with a couple of them stuck in the leaf-free branches of a somewhat bare tree.",caption_composite,1746825961833,2,informativity.json,English,caption_composite,sampled_images_corrected_format_2/000000561714.jpg,17.657,caption_verbose,left,['left'],Fri May 09 2025 22:16:45 GMT+0100 (British Summer Time),1746825405095,9.278966666666667,13,-OPqwDGM-UbMZpqrsat8,2
1,55,"I greatly enjoyed the study, a good interface. thanks!",A boy in the yard throwing a Frisbee on a sunny day.,caption_coco,"A young boy is playing in the yard, engaging in the activity of throwing a Frisbee into the open space around him on a bright and sunny day. The weather is clear, providing a perfect outdoor environment for him to enjoy this recreational pastime.",caption_verbose,1746825961833,2,informativity.json,English,caption_verbose,sampled_images_corrected_format_2/000000517468.jpg,6.285,caption_coco,left,['left'],Fri May 09 2025 22:16:45 GMT+0100 (British Summer Time),1746825405095,9.278966666666667,14,-OPqwDGM-UbMZpqrsat8,2
1,55,"I greatly enjoyed the study, a good interface. thanks!","A row of very cute black and white cows is lined up side by side, with baby cows standing next to them. This bunch of cattle is standing together, creating a pleasant scene of cows and their young.",caption_composite,"The image shows a row of toy cows lined up next to each other. Each cow is primarily white with distinct black patches. The cows are viewed from a top-down perspective, making their shapes and arrangements clearly visible. The surface of the cows appears textured, indicating realistic details. The background is minimal and unobtrusive, focusing attention on the cows.",caption_gpt4o,1746825961833,2,informativity.json,English,caption_composite,sampled_images_corrected_format_2/000000032909.jpg,17.014,caption_gpt4o,right,['right'],Fri May 09 2025 22:16:45 GMT+0100 (British Summer Time),1746825405095,9.278966666666667,15,-OPqwDGM-UbMZpqrsat8,2
1,55,"I greatly enjoyed the study, a good interface. thanks!","A man is engaged in the activity of throwing a frisbee, and he is notably adorned with a baseball hat, which is positioned upon his head. The action of tossing the frisbee appears to be energetic, and his choice of headwear suggests a casual or sporty atmosphere in which this event is taking place.",caption_verbose,A man wearing a baseball hat tossing a frisbee.,caption_coco,1746825961833,2,informativity.json,English,caption_verbose,sampled_images_corrected_format_2/000000403349.jpg,43.785,caption_coco,right,['right'],Fri May 09 2025 22:16:45 GMT+0100 (British Summer Time),1746825405095,9.278966666666667,16,-OPqwDGM-UbMZpqrsat8,2
1,55,"I greatly enjoyed the study, a good interface. thanks!","Two zebras stand next to each other on a dirt field, while a couple of other zebras explore in the sand next to some chopped wood. In a zoo setting, zebras wander around their pen, with two of them walking around as well. Among the group, baby zebras are also present, moving around to explore their environment.",caption_composite,"In a scene depicting the natural world, there are two zebras positioned closely together, standing side by side, on a field characterized by its dirt surface. The two zebras are neighboring each other, creating a visual representation of their cohabitation in this particular environment, which consists primarily of earth rather than grass or other forms of vegetation.",caption_verbose,1746825961833,2,informativity.json,English,caption_verbose,sampled_images_corrected_format_2/000000536716.jpg,14.622,caption_composite,left,['left'],Fri May 09 2025 22:16:45 GMT+0100 (British Summer Time),1746825405095,9.278966666666667,17,-OPqwDGM-UbMZpqrsat8,2
1,55,"I greatly enjoyed the study, a good interface. thanks!",A black and white dog is being fed part of a sandwich by a person. The dog eagerly eats a piece of bread from the owner's hand as they feed it the remainder of the sandwich. The scene depicts the dog enjoying the sandwich while being held by the person.,caption_composite,"A dog is in the process of enjoying a sandwich, which is being held by an individual. The person is gripping the sandwich with their hand, while the dog is positioned in a way that allows it to take bites or nibbles from the food item that is being offered to it.",caption_verbose,1746825961833,2,informativity.json,English,caption_verbose,sampled_images_corrected_format_2/000000397161.jpg,15.913,caption_composite,left,['left'],Fri May 09 2025 22:16:45 GMT+0100 (British Summer Time),1746825405095,9.278966666666667,18,-OPqwDGM-UbMZpqrsat8,2
1,55,"I greatly enjoyed the study, a good interface. thanks!","The image shows a tree, likely a eucalyptus, with numerous birds perched on its branches. The birds appear to be predominantly pink with some black, indicating they could be a species of cockatoo or similar. The background is a clear blue sky, and the tree has green leaves. Some birds are in motion, while others are stationary among the branches.",caption_gpt4o,"A tree filled with many birds under a blue sky features a group of large red birds, as well as several parakeets, perched in the top branches. These birds are sitting together, creating a lively scene among the treetops.",caption_composite,1746825961833,2,informativity.json,English,caption_composite,sampled_images_corrected_format_2/000000056134.jpg,11.701,caption_gpt4o,left,['left'],Fri May 09 2025 22:16:45 GMT+0100 (British Summer Time),1746825405095,9.278966666666667,19,-OPqwDGM-UbMZpqrsat8,2
1,55,"I greatly enjoyed the study, a good interface. thanks!","The image depicts a black bear standing on a rocky terrain. The bear has a thick fur coat and is facing slightly toward the right. The background consists of various rocks, some covered in moss or barnacles, and there is sparse grass in the area. The setting appears to be natural and rugged, with mixed textures from the rocks and the bear's fur.",caption_gpt4o,"A large black bear is seen moving steadily across an expansive field that stretches out before it. The bear, characterized by its dark fur, makes its way across the open space, navigating the area as it wanders from one side of the field to the other.",caption_verbose,1746825961833,2,informativity.json,English,caption_verbose,sampled_images_corrected_format_2/000000289354.jpg,13.366,caption_gpt4o,left,['left'],Fri May 09 2025 22:16:45 GMT+0100 (British Summer Time),1746825405095,9.278966666666667,20,-OPqwDGM-UbMZpqrsat8,2
1,55,"I greatly enjoyed the study, a good interface. thanks!","On a plate, there is a selection of various items that include several pieces of bread, as well as an assortment of fruits and vegetables. This arrangement presents a combination of different food types, showcasing both the carbohydrate-rich bread and the fresh produce in the form of fruits and vegetables, all placed neatly on the surface of the plate.",caption_verbose,"The yellow plate features an assortment of food items, including slices of bread, an omelet, and a variety of fruits and vegetables such as oranges, apples, and tomatoes. This combination of healthy options presents a balanced meal on the plate.",caption_composite,1746825961833,2,informativity.json,English,caption_verbose,sampled_images_corrected_format_2/000000021397.jpg,11.744,caption_composite,right,['right'],Fri May 09 2025 22:16:45 GMT+0100 (British Summer Time),1746825405095,9.278966666666667,21,-OPqwDGM-UbMZpqrsat8,2
1,55,"I greatly enjoyed the study, a good interface. thanks!",An older man wearing a gray shirt is holding a Wii remote and smiling while playing a video game.,caption_composite,a man wearing a gray shirt is playing a video game,caption_coco,1746825961833,2,informativity.json,English,caption_coco,sampled_images_corrected_format_2/000000274977.jpg,12.351,caption_composite,left,['left'],Fri May 09 2025 22:16:45 GMT+0100 (British Summer Time),1746825405095,9.278966666666667,22,-OPqwDGM-UbMZpqrsat8,2
1,55,"I greatly enjoyed the study, a good interface. thanks!","In a wide and open area, two young bears can be observed engaging in a playful fight with each other. These bears, full of youthful energy and enthusiasm, are wrestling and tumbling around as they seem to enjoy their time together in this expansive outdoor space. Their playful antics involve a variety of moves, as they interact in a way that is characteristic of their age and species.",caption_verbose,two young bears are play fighting in the open,caption_coco,1746825961833,2,informativity.json,English,caption_verbose,sampled_images_corrected_format_2/000000377282.jpg,7.64,caption_coco,right,['right'],Fri May 09 2025 22:16:45 GMT+0100 (British Summer Time),1746825405095,9.278966666666667,23,-OPqwDGM-UbMZpqrsat8,2
1,55,"I greatly enjoyed the study, a good interface. thanks!","A small black spaniel-type dog is being petted by its owner in front of a bookshelf in a library or house setting. The person is engaging with the dog, providing affection while surrounded by a collection of books on the shelves nearby.",caption_composite,a black dog with its owner in the library,caption_coco,1746825961833,2,informativity.json,English,caption_coco,sampled_images_corrected_format_2/000000074001.jpg,14.453,caption_composite,left,['left'],Fri May 09 2025 22:16:45 GMT+0100 (British Summer Time),1746825405095,9.278966666666667,24,-OPqwDGM-UbMZpqrsat8,2
1,55,"I greatly enjoyed the study, a good interface. thanks!","The image shows a black suitcase with a textured surface. It is positioned on a pink carpet. Resting on top of the suitcase is a DVD case for the film ""Gladiator."" The DVD case is slightly angled, displaying the cover art prominently. There are no other objects or features visible in the image.",caption_gpt4o,"A suitcase is positioned on its side, with a DVD titled ""Gladiator"" resting atop it. Next to the suitcase, a travel luggage bag includes the Gladiator movie DVD case prominently displayed. Additionally, a computer case features the same Gladiator DVD placed on top of it.",caption_composite,1746825961833,2,informativity.json,English,caption_composite,sampled_images_corrected_format_2/000000272097.jpg,13.584,caption_gpt4o,left,['left'],Fri May 09 2025 22:16:45 GMT+0100 (British Summer Time),1746825405095,9.278966666666667,25,-OPqwDGM-UbMZpqrsat8,2
1,55,"I greatly enjoyed the study, a good interface. thanks!","The image shows a child sitting inside a black bag or suitcase placed on a flat surface. The child has short hair and is wearing a white shirt. The background includes a bookshelf filled with various books, a blue basket, and multiple objects such as fans and boxes. There is also a piece of cardboard on the floor near the bag. The lighting in the room is bright.",caption_gpt4o,a small child playing in a luggage bag on a wooden floor,caption_coco,1746825961833,2,informativity.json,English,caption_coco,sampled_images_corrected_format_2/000000233143.jpg,20.055,caption_gpt4o,left,['left'],Fri May 09 2025 22:16:45 GMT+0100 (British Summer Time),1746825405095,9.278966666666667,26,-OPqwDGM-UbMZpqrsat8,2
1,55,"I greatly enjoyed the study, a good interface. thanks!","A young man wearing glasses is brushing his teeth, with a toothbrush in his mouth, while someone takes his picture.",caption_composite,"A young man is engaged in the act of brushing his teeth, performing this daily hygiene routine while also wearing a pair of glasses that rest upon his nose.",caption_verbose,1746825961833,2,informativity.json,English,caption_verbose,sampled_images_corrected_format_2/000000104543.jpg,11.92,caption_composite,left,['left'],Fri May 09 2025 22:16:45 GMT+0100 (British Summer Time),1746825405095,9.278966666666667,27,-OPqwDGM-UbMZpqrsat8,2
1,55,"I greatly enjoyed the study, a good interface. thanks!",Two zebras are in the grass near some trees.,caption_coco,"Two zebras are standing next to each other in a park, walking on the grass under a shady tree, while also grazing in a field near some trees.",caption_composite,1746825961833,2,informativity.json,English,caption_composite,sampled_images_corrected_format_2/000000053916.jpg,18.096,caption_coco,left,['left'],Fri May 09 2025 22:16:45 GMT+0100 (British Summer Time),1746825405095,9.278966666666667,28,-OPqwDGM-UbMZpqrsat8,2
1,55,"I greatly enjoyed the study, a good interface. thanks!","A golden-colored dog is comfortably positioned on the grass in the yard, with its mouth wide open, suggesting a relaxed state.",caption_verbose,A golden dog laying in the yard with its mouth open.,caption_coco,1746825961833,2,informativity.json,English,caption_verbose,sampled_images_corrected_format_2/000000293130.jpg,5.966,caption_coco,right,['right'],Fri May 09 2025 22:16:45 GMT+0100 (British Summer Time),1746825405095,9.278966666666667,29,-OPqwDGM-UbMZpqrsat8,2
1,55,"I greatly enjoyed the study, a good interface. thanks!","A large adult bear, accompanied by two of its young cubs, is making its way through a flowing river. The bear, being the mother or protector, is leading the two small cubs as they carefully wade through the water together, navigating the currents and aquatic surroundings.",caption_verbose,"The image shows a brown bear walking through shallow water, accompanied by two smaller bear cubs. The background features green foliage, with trees partially visible. There are rocks in the water, and the bear and cubs appear to be creating ripples as they move. The overall setting is a natural environment, likely along a river or stream.",caption_gpt4o,1746825961833,2,informativity.json,English,caption_verbose,sampled_images_corrected_format_2/000000434602.jpg,10.623,caption_gpt4o,right,['right'],Fri May 09 2025 22:16:45 GMT+0100 (British Summer Time),1746825405095,9.278966666666667,30,-OPqwDGM-UbMZpqrsat8,2
1,39,,"The image features a close-up view of an individual who is gripping a hot dog. This detail-oriented perspective allows for a clear focus on the person's hand as they hold the food item, providing insight into the scene where the hot dog is being prepared to be eaten or enjoyed.",caption_verbose,"The image features a hot dog placed inside a bun. The bun is light in color and appears soft, partially wrapped in white paper. A sausage is visible within the bun, and a thick line of yellow mustard is applied along the top of the sausage. The hand holding the hot dog is partially visible in the bottom left of the image.",caption_gpt4o,1746825994171,2,informativity.json,English,caption_verbose,sampled_images_corrected_format_2/000000506873.jpg,26.194,caption_gpt4o,right,['right'],Fri May 09 2025 17:16:58 GMT-0400 (Eastern Daylight Time),1746825418644,9.592116666666668,1,-OPqwL3sy-_yCVu3c3CR,3
1,39,,"The image shows a surfer riding a wave. The surfer is positioned on a surfboard, leaning back and turning towards the wave. The water is green with white foam at the crest of the wave. The background consists of more ocean and a muted sky. The surfer is wearing a wetsuit with visible branding and has a helmet on.",caption_gpt4o,A surfer catches a wave and spins around.,caption_coco,1746825994171,2,informativity.json,English,caption_coco,sampled_images_corrected_format_2/000000537300.jpg,19.311,caption_gpt4o,left,['left'],Fri May 09 2025 17:16:58 GMT-0400 (Eastern Daylight Time),1746825418644,9.592116666666668,2,-OPqwL3sy-_yCVu3c3CR,3
1,39,,"Two zebras stand next to each other on a dirt field, while a couple of other zebras explore in the sand next to some chopped wood. In a zoo setting, zebras wander around their pen, with two of them walking around as well. Among the group, baby zebras are also present, moving around to explore their environment.",caption_composite,"In a scene depicting the natural world, there are two zebras positioned closely together, standing side by side, on a field characterized by its dirt surface. The two zebras are neighboring each other, creating a visual representation of their cohabitation in this particular environment, which consists primarily of earth rather than grass or other forms of vegetation.",caption_verbose,1746825994171,2,informativity.json,English,caption_verbose,sampled_images_corrected_format_2/000000536716.jpg,18.512,caption_composite,left,['left'],Fri May 09 2025 17:16:58 GMT-0400 (Eastern Daylight Time),1746825418644,9.592116666666668,3,-OPqwL3sy-_yCVu3c3CR,3
1,39,,"A golden dog sits in the grass near a yellow Frisbee, laying in the shade of the yard with its mouth open.",caption_composite,"The image features a golden retriever lying on green grass. The dog is positioned to the right side of the frame, facing forward, with its tongue out. In front of the dog is a yellow frisbee. The background includes some trees with green foliage, and the area is well-lit, suggesting it is daytime. There is also a wooden fence visible in the distance.",caption_gpt4o,1746825994171,2,informativity.json,English,caption_composite,sampled_images_corrected_format_2/000000293130.jpg,23.954,caption_gpt4o,right,"['left', 'right']",Fri May 09 2025 17:16:58 GMT-0400 (Eastern Daylight Time),1746825418644,9.592116666666668,4,-OPqwL3sy-_yCVu3c3CR,3
1,39,,"The image shows two kites caught in a tree. One kite is predominantly red with some additional colors, while the other is blue with wave patterns and a cartoon face. The kites are positioned among bare branches, and there are leaves present on some branches. The background appears cloudy, suggesting overcast weather.",caption_gpt4o,"In the midst of a natural setting, there are two kites that are vividly decorated with a variety of bright and vibrant colors, and they have become ensnared among the branches of several trees.",caption_verbose,1746825994171,2,informativity.json,English,caption_gpt4o,sampled_images_corrected_format_2/000000561714.jpg,15.023,caption_verbose,right,"['left', 'right']",Fri May 09 2025 17:16:58 GMT-0400 (Eastern Daylight Time),1746825418644,9.592116666666668,5,-OPqwL3sy-_yCVu3c3CR,3
1,39,,Two zebras are in the grass near some trees.,caption_coco,"The image shows two zebras in a field. One zebra is walking towards the viewer, while the other is slightly in the background, facing away. The zebras are positioned in an area with grass and trees. The trees are dark and leafy, and there is open space in the grassy area where the zebras are located. The lighting suggests it is daytime.",caption_gpt4o,1746825994171,2,informativity.json,English,caption_coco,sampled_images_corrected_format_2/000000053916.jpg,29.164,caption_gpt4o,right,['right'],Fri May 09 2025 17:16:58 GMT-0400 (Eastern Daylight Time),1746825418644,9.592116666666668,6,-OPqwL3sy-_yCVu3c3CR,3
1,39,,"In a sunny field, two brown bear cubs are play fighting and tussling together in the grass. They are seen wrestling near some rocks, rolling around and enjoying their time in the open. Their playful interactions showcase their youthful energy and curiosity as they engage in various playful antics.",caption_composite,two young bears are play fighting in the open,caption_coco,1746825994171,2,informativity.json,English,caption_coco,sampled_images_corrected_format_2/000000377282.jpg,21.435,caption_composite,left,['left'],Fri May 09 2025 17:16:58 GMT-0400 (Eastern Daylight Time),1746825418644,9.592116666666668,7,-OPqwL3sy-_yCVu3c3CR,3
1,39,,"The image shows a young boy wearing a red t-shirt and black pants. He is in a grassy area, with a fence visible in the background. The boy appears to be in the motion of throwing something. In the background, there are stacked logs and some trees. The ground is green and well-maintained, and the lighting suggests it is a bright day.",caption_gpt4o,"A young boy is playing in the yard, engaging in the activity of throwing a Frisbee into the open space around him on a bright and sunny day. The weather is clear, providing a perfect outdoor environment for him to enjoy this recreational pastime.",caption_verbose,1746825994171,2,informativity.json,English,caption_verbose,sampled_images_corrected_format_2/000000517468.jpg,14.624,caption_gpt4o,left,"['right', 'left']",Fri May 09 2025 17:16:58 GMT-0400 (Eastern Daylight Time),1746825418644,9.592116666666668,8,-OPqwL3sy-_yCVu3c3CR,3
1,39,,"The yellow plate features an assortment of food items, including slices of bread, an omelet, and a variety of fruits and vegetables such as oranges, apples, and tomatoes. This combination of healthy options presents a balanced meal on the plate.",caption_composite,"On a plate, there is a selection of various items that include several pieces of bread, as well as an assortment of fruits and vegetables. This arrangement presents a combination of different food types, showcasing both the carbohydrate-rich bread and the fresh produce in the form of fruits and vegetables, all placed neatly on the surface of the plate.",caption_verbose,1746825994171,2,informativity.json,English,caption_verbose,sampled_images_corrected_format_2/000000021397.jpg,12.384,caption_composite,left,['left'],Fri May 09 2025 17:16:58 GMT-0400 (Eastern Daylight Time),1746825418644,9.592116666666668,9,-OPqwL3sy-_yCVu3c3CR,3
1,39,,"A man wearing a baseball hat and a jacket is standing in a sandy area, poised to throw a frisbee. He is near a road, preparing for the toss while maintaining a casual stance.",caption_composite,"The image shows a man wearing a gray and white striped hooded sweatshirt and a baseball cap. He is outdoors, mid-motion, preparing to throw a frisbee. The background features a dirt path and sparse vegetation, suggesting a natural, open area. The lighting appears somewhat muted, indicating it may be in the late afternoon or evening.",caption_gpt4o,1746825994171,2,informativity.json,English,caption_gpt4o,sampled_images_corrected_format_2/000000403349.jpg,19.04,caption_composite,left,['left'],Fri May 09 2025 17:16:58 GMT-0400 (Eastern Daylight Time),1746825418644,9.592116666666668,10,-OPqwL3sy-_yCVu3c3CR,3
1,39,,"A large group of cattle, consisting of numerous individuals, can be observed standing together in a vibrant and lush green field that is flourishing with healthy grass. The field provides a rich and verdant landscape that enhances the appearance of the cattle, who are positioned across the area in a manner that suggests they are comfortably grazing or simply resting in this picturesque environment.",caption_verbose,A herd of cattle standing on a  lush green field.,caption_coco,1746825994171,2,informativity.json,English,caption_verbose,sampled_images_corrected_format_2/000000344897.jpg,14.18,caption_coco,right,"['left', 'right']",Fri May 09 2025 17:16:58 GMT-0400 (Eastern Daylight Time),1746825418644,9.592116666666668,11,-OPqwL3sy-_yCVu3c3CR,3
1,39,,Many black and white cows are standing in a row,caption_coco,"The image shows a row of toy cows lined up next to each other. Each cow is primarily white with distinct black patches. The cows are viewed from a top-down perspective, making their shapes and arrangements clearly visible. The surface of the cows appears textured, indicating realistic details. The background is minimal and unobtrusive, focusing attention on the cows.",caption_gpt4o,1746825994171,2,informativity.json,English,caption_gpt4o,sampled_images_corrected_format_2/000000032909.jpg,9.632,caption_coco,left,['left'],Fri May 09 2025 17:16:58 GMT-0400 (Eastern Daylight Time),1746825418644,9.592116666666668,12,-OPqwL3sy-_yCVu3c3CR,3
1,39,,"A small bird is perched on a bare branch of a tree, surrounded by dense brushy areas and dry grass. It stands atop the thorny limb, observing its surroundings from this elevated position.",caption_composite,Small bird standing on branch in dense brushy area.,caption_coco,1746825994171,2,informativity.json,English,caption_composite,sampled_images_corrected_format_2/000000134605.jpg,9.711,caption_coco,right,['right'],Fri May 09 2025 17:16:58 GMT-0400 (Eastern Daylight Time),1746825418644,9.592116666666668,13,-OPqwL3sy-_yCVu3c3CR,3
1,39,,"The image shows a child sitting inside a black bag or suitcase placed on a flat surface. The child has short hair and is wearing a white shirt. The background includes a bookshelf filled with various books, a blue basket, and multiple objects such as fans and boxes. There is also a piece of cardboard on the floor near the bag. The lighting in the room is bright.",caption_gpt4o,"A young child, who appears to be quite small in stature, is currently engaging in playtime activities inside a luggage bag that is placed on a smooth wooden floor surface. The child seems to be enjoying this playful moment in the comfortable confines of the bag, while the wooden floor serves as a solid and sturdy base for their imaginative adventures.",caption_verbose,1746825994171,2,informativity.json,English,caption_verbose,sampled_images_corrected_format_2/000000233143.jpg,16.511,caption_gpt4o,left,['left'],Fri May 09 2025 17:16:58 GMT-0400 (Eastern Daylight Time),1746825418644,9.592116666666668,14,-OPqwL3sy-_yCVu3c3CR,3
1,39,,"This meal consists of a burger made from sausage, which serves as the primary protein component, and it is accompanied by pickles that add a tangy flavor. Additionally, on the side, there is a serving of greens, which may include a variety of leafy vegetables, providing a fresh and healthy contrast to the rich and savory sausage burger.",caption_verbose,Sausage burger with pickles and a side of greens,caption_coco,1746825994171,2,informativity.json,English,caption_verbose,sampled_images_corrected_format_2/000000159924.jpg,15.592,caption_coco,right,['right'],Fri May 09 2025 17:16:58 GMT-0400 (Eastern Daylight Time),1746825418644,9.592116666666668,15,-OPqwL3sy-_yCVu3c3CR,3
1,39,,"A lone zebra with gold coloring is situated in an open field of grass, his natural habitat. The zebra is walking and looking around as he moves to his left, exploring the grassy area that surrounds him.",caption_composite,"A zebra is currently situated within its natural habitat, which is characterized by a landscape that typically includes grasslands, savannas, or similar environments conducive to their lifestyle. In this particular instance, the zebra is moving towards its left, indicating a specific direction of travel as it navigates through its surroundings.",caption_verbose,1746825994171,2,informativity.json,English,caption_verbose,sampled_images_corrected_format_2/000000251502.jpg,27.96,caption_composite,left,['left'],Fri May 09 2025 17:16:58 GMT-0400 (Eastern Daylight Time),1746825418644,9.592116666666668,16,-OPqwL3sy-_yCVu3c3CR,3
1,39,,"The image shows a man in a black long-sleeve shirt and black pants positioned on a pink mat. He is in a crawling pose with one hand on the ground and the other hand holding a piece of food, which he is bringing towards his mouth. There are crumbs on the mat near him. The background is gray.",caption_gpt4o,"A man is engaged in the physical activity of performing a push-up, which involves lowering and raising his body by using his arms in a repetitive motion. In the midst of completing this exercise, he takes a moment to take a bite of some food, which brings an interesting juxtaposition between his workout and the act of eating.",caption_verbose,1746825994171,2,informativity.json,English,caption_verbose,sampled_images_corrected_format_2/000000438186.jpg,13.184,caption_gpt4o,left,['left'],Fri May 09 2025 17:16:58 GMT-0400 (Eastern Daylight Time),1746825418644,9.592116666666668,17,-OPqwL3sy-_yCVu3c3CR,3
1,39,,"The image shows a black suitcase with a textured surface. It is positioned on a pink carpet. Resting on top of the suitcase is a DVD case for the film ""Gladiator."" The DVD case is slightly angled, displaying the cover art prominently. There are no other objects or features visible in the image.",caption_gpt4o,a gladiator movie dvd case on a travel luggage bag,caption_coco,1746825994171,2,informativity.json,English,caption_gpt4o,sampled_images_corrected_format_2/000000272097.jpg,15.136,caption_coco,right,['right'],Fri May 09 2025 17:16:58 GMT-0400 (Eastern Daylight Time),1746825418644,9.592116666666668,18,-OPqwL3sy-_yCVu3c3CR,3
1,39,,"A dog is in the process of enjoying a sandwich, which is being held by an individual. The person is gripping the sandwich with their hand, while the dog is positioned in a way that allows it to take bites or nibbles from the food item that is being offered to it.",caption_verbose,"The image shows a close-up of a dog's face, primarily focusing on its mouth. The dog appears to be holding a piece of bread in its mouth. A human hand is visible, gently holding another piece of bread toward the dog. The background is blurred, making it difficult to determine the setting. The dog's fur is predominantly white with black markings.",caption_gpt4o,1746825994171,2,informativity.json,English,caption_gpt4o,sampled_images_corrected_format_2/000000397161.jpg,11.168,caption_verbose,left,['left'],Fri May 09 2025 17:16:58 GMT-0400 (Eastern Daylight Time),1746825418644,9.592116666666668,19,-OPqwL3sy-_yCVu3c3CR,3
1,39,,"A group of three zebras is walking next to each other in a fenced-in area that features a grass field. Nearby, some zebras are running around together close to four green poles. Within this enclosed area, the trio of zebras galloped away from a four-wheeled imposter zebra, creating a lively scene as they navigate the space.",caption_composite,"The image shows two zebras running in a grassy area. They have distinct black and white stripes. In the background, there are tall green poles, and a fenced area is visible. A vehicle, painted with a similar black and white striped pattern, is parked nearby. The sky is clear, with some clouds, and there are trees in the background.",caption_gpt4o,1746825994171,2,informativity.json,English,caption_composite,sampled_images_corrected_format_2/000000489995.jpg,15.688,caption_gpt4o,right,['right'],Fri May 09 2025 17:16:58 GMT-0400 (Eastern Daylight Time),1746825418644,9.592116666666668,20,-OPqwL3sy-_yCVu3c3CR,3
1,39,,"The image features a horse standing in a grassy field. The horse is wearing a striped blanket. Surrounding the field, there are several fence posts, and the fencing encloses a rectangular area. In the background, there are greenhouses and trees. The sky is mostly cloudy with some rays of sunlight visible. There are utility poles in the distance.",caption_gpt4o,"In a spacious open area designated as a field, there exists a horse that is currently wearing a blanket featuring a striped pattern. This particular blanket is draped over the horse's body, providing it with an added layer of covering while it remains in the expansive setting of the field.",caption_verbose,1746825994171,2,informativity.json,English,caption_verbose,sampled_images_corrected_format_2/000000526035.jpg,18.184,caption_gpt4o,left,"['right', 'left']",Fri May 09 2025 17:16:58 GMT-0400 (Eastern Daylight Time),1746825418644,9.592116666666668,21,-OPqwL3sy-_yCVu3c3CR,3
1,39,,a black dog with its owner in the library,caption_coco,"A small black spaniel-type dog is being petted by its owner in front of a bookshelf in a library or house setting. The person is engaging with the dog, providing affection while surrounded by a collection of books on the shelves nearby.",caption_composite,1746825994171,2,informativity.json,English,caption_coco,sampled_images_corrected_format_2/000000074001.jpg,11.557,caption_composite,right,['right'],Fri May 09 2025 17:16:58 GMT-0400 (Eastern Daylight Time),1746825418644,9.592116666666668,22,-OPqwL3sy-_yCVu3c3CR,3
1,39,,"The image shows a skier in motion on a snowy slope. The skier is wearing a blue and green outfit with a helmet and goggles, and the skis are black. There are two poles held in the skier's hands, matching the outfit's colors. The ski slope features blue markings on the surface. A netting structure is visible in the background.",caption_gpt4o,"A man wearing a colorful outfit is skiing down a steep slope on a sunny day. He is crouched low, bending while holding skiing poles, as he slides down the hill in motion.",caption_composite,1746825994171,2,informativity.json,English,caption_composite,sampled_images_corrected_format_2/000000469913.jpg,18.294,caption_gpt4o,left,"['right', 'left']",Fri May 09 2025 17:16:58 GMT-0400 (Eastern Daylight Time),1746825418644,9.592116666666668,23,-OPqwL3sy-_yCVu3c3CR,3
1,39,,"The image shows a brown bear walking through shallow water, accompanied by two smaller bear cubs. The background features green foliage, with trees partially visible. There are rocks in the water, and the bear and cubs appear to be creating ripples as they move. The overall setting is a natural environment, likely along a river or stream.",caption_gpt4o,"A brown bear, accompanied by her two young cubs, is walking across a shallow river. The trio of bears is wading through the water, with the mother bear leading the way as they navigate the river's flow.",caption_composite,1746825994171,2,informativity.json,English,caption_gpt4o,sampled_images_corrected_format_2/000000434602.jpg,38.023,caption_composite,right,['right'],Fri May 09 2025 17:16:58 GMT-0400 (Eastern Daylight Time),1746825418644,9.592116666666668,24,-OPqwL3sy-_yCVu3c3CR,3
1,39,,a black bear walks across a big field,caption_coco,"A large black bear is seen moving steadily across an expansive field that stretches out before it. The bear, characterized by its dark fur, makes its way across the open space, navigating the area as it wanders from one side of the field to the other.",caption_verbose,1746825994171,2,informativity.json,English,caption_verbose,sampled_images_corrected_format_2/000000289354.jpg,19.112,caption_coco,left,"['right', 'left']",Fri May 09 2025 17:16:58 GMT-0400 (Eastern Daylight Time),1746825418644,9.592116666666668,25,-OPqwL3sy-_yCVu3c3CR,3
1,39,,"A significant number of birds can be observed perched upon the uppermost branches of a tree, where they seem to find a suitable place to rest or perhaps to survey their surroundings from an elevated position among the foliage.",caption_verbose,"The image shows a tree, likely a eucalyptus, with numerous birds perched on its branches. The birds appear to be predominantly pink with some black, indicating they could be a species of cockatoo or similar. The background is a clear blue sky, and the tree has green leaves. Some birds are in motion, while others are stationary among the branches.",caption_gpt4o,1746825994171,2,informativity.json,English,caption_gpt4o,sampled_images_corrected_format_2/000000056134.jpg,9.863,caption_verbose,left,['left'],Fri May 09 2025 17:16:58 GMT-0400 (Eastern Daylight Time),1746825418644,9.592116666666668,26,-OPqwL3sy-_yCVu3c3CR,3
1,39,,"The image shows a young male individual with glasses brushing his teeth with a blue toothbrush. He is positioned in front of a mirror, and the background features white tiled walls with a small decorative element visible. The person's face is partially obscured by the toothbrush, and he is wearing a black shirt. The lighting suggests it is a bathroom setting.",caption_gpt4o,A young man brushing his teeth while wearing glasses.,caption_coco,1746825994171,2,informativity.json,English,caption_coco,sampled_images_corrected_format_2/000000104543.jpg,10.58,caption_gpt4o,left,['left'],Fri May 09 2025 17:16:58 GMT-0400 (Eastern Daylight Time),1746825418644,9.592116666666668,27,-OPqwL3sy-_yCVu3c3CR,3
1,39,,"The image features a man with gray hair, wearing a striped shirt. He is holding two white game controllers, one in each hand. The background consists of wooden paneling. The man's facial expression shows a slight smile, and he appears to be engaged with the controllers.",caption_gpt4o,"A man is engaged in the activity of playing a video game, and he is dressed in a shirt that is gray in color.",caption_verbose,1746825994171,2,informativity.json,English,caption_verbose,sampled_images_corrected_format_2/000000274977.jpg,8.804,caption_gpt4o,left,['left'],Fri May 09 2025 17:16:58 GMT-0400 (Eastern Daylight Time),1746825418644,9.592116666666668,28,-OPqwL3sy-_yCVu3c3CR,3
1,39,,A cat laying on top of a wooden bench in a park.,caption_coco,"A small grey striped cat is sleeping on a wooden bench in a park, laying comfortably and enjoying the outdoor environment. The bench is situated outside, providing a serene setting for the cat’s rest, and a close-up view reveals the cat’s relaxed posture as it peacefully dozes off.",caption_composite,1746825994171,2,informativity.json,English,caption_composite,sampled_images_corrected_format_2/000000337435.jpg,9.987,caption_coco,left,['left'],Fri May 09 2025 17:16:58 GMT-0400 (Eastern Daylight Time),1746825418644,9.592116666666668,29,-OPqwL3sy-_yCVu3c3CR,3
1,39,,A giraffe seen from a distance through trees,caption_coco,"A giraffe can be observed from afar, its tall and distinctive figure partially obscured by the surrounding trees that populate the landscape. The sighting occurs at a considerable distance, where the unique silhouette of the giraffe stands out against the backdrop of the vegetation, providing a glimpse into the natural habitat in which this remarkable animal resides.",caption_verbose,1746825994171,2,informativity.json,English,caption_coco,sampled_images_corrected_format_2/000000345826.jpg,19.928,caption_verbose,right,"['left', 'right']",Fri May 09 2025 17:16:58 GMT-0400 (Eastern Daylight Time),1746825418644,9.592116666666668,30,-OPqwL3sy-_yCVu3c3CR,3
1,31,no comment. all was well,"A significant number of birds can be observed perched upon the uppermost branches of a tree, where they seem to find a suitable place to rest or perhaps to survey their surroundings from an elevated position among the foliage.",caption_verbose,Many birds sit in the top branches of a tree. ,caption_coco,1746825992625,0,informativity.json,YES,caption_verbose,sampled_images_corrected_format_2/000000056134.jpg,21.463,caption_coco,right,['right'],Fri May 09 2025 14:17:34 GMT-0700 (Pacific Daylight Time),1746825454632,8.96655,1,-OPqwLCbv6edoBRQxhfs,4
1,31,no comment. all was well,"A golden dog sits in the grass near a yellow Frisbee, laying in the shade of the yard with its mouth open.",caption_composite,A golden dog laying in the yard with its mouth open.,caption_coco,1746825992625,0,informativity.json,YES,caption_composite,sampled_images_corrected_format_2/000000293130.jpg,24.106,caption_coco,right,['right'],Fri May 09 2025 14:17:34 GMT-0700 (Pacific Daylight Time),1746825454632,8.96655,2,-OPqwLCbv6edoBRQxhfs,4
1,31,no comment. all was well,"A group of three zebras is walking next to each other in a fenced-in area that features a grass field. Nearby, some zebras are running around together close to four green poles. Within this enclosed area, the trio of zebras galloped away from a four-wheeled imposter zebra, creating a lively scene as they navigate the space.",caption_composite,A fenced in area with a grass field and three zebra together near four green poles.,caption_coco,1746825992625,0,informativity.json,YES,caption_composite,sampled_images_corrected_format_2/000000489995.jpg,34.152,caption_coco,right,['right'],Fri May 09 2025 14:17:34 GMT-0700 (Pacific Daylight Time),1746825454632,8.96655,3,-OPqwLCbv6edoBRQxhfs,4
1,31,no comment. all was well,"The image shows a skier in motion on a snowy slope. The skier is wearing a blue and green outfit with a helmet and goggles, and the skis are black. There are two poles held in the skier's hands, matching the outfit's colors. The ski slope features blue markings on the surface. A netting structure is visible in the background.",caption_gpt4o,a man holding skiing poles bending as he ski,caption_coco,1746825992625,0,informativity.json,YES,caption_gpt4o,sampled_images_corrected_format_2/000000469913.jpg,4.747,caption_coco,right,['right'],Fri May 09 2025 14:17:34 GMT-0700 (Pacific Daylight Time),1746825454632,8.96655,4,-OPqwLCbv6edoBRQxhfs,4
1,31,no comment. all was well,"The image features a man with gray hair, wearing a striped shirt. He is holding two white game controllers, one in each hand. The background consists of wooden paneling. The man's facial expression shows a slight smile, and he appears to be engaged with the controllers.",caption_gpt4o,An older man wearing a gray shirt is holding a Wii remote and smiling while playing a video game.,caption_composite,1746825992625,0,informativity.json,YES,caption_gpt4o,sampled_images_corrected_format_2/000000274977.jpg,4.44,caption_composite,right,['right'],Fri May 09 2025 14:17:34 GMT-0700 (Pacific Daylight Time),1746825454632,8.96655,5,-OPqwLCbv6edoBRQxhfs,4
1,31,no comment. all was well,A black and white dog is being fed part of a sandwich by a person. The dog eagerly eats a piece of bread from the owner's hand as they feed it the remainder of the sandwich. The scene depicts the dog enjoying the sandwich while being held by the person.,caption_composite,"A dog is in the process of enjoying a sandwich, which is being held by an individual. The person is gripping the sandwich with their hand, while the dog is positioned in a way that allows it to take bites or nibbles from the food item that is being offered to it.",caption_verbose,1746825992625,0,informativity.json,YES,caption_composite,sampled_images_corrected_format_2/000000397161.jpg,12.094,caption_verbose,right,['right'],Fri May 09 2025 14:17:34 GMT-0700 (Pacific Daylight Time),1746825454632,8.96655,6,-OPqwLCbv6edoBRQxhfs,4
1,31,no comment. all was well,"In the midst of a natural setting, there are two kites that are vividly decorated with a variety of bright and vibrant colors, and they have become ensnared among the branches of several trees.",caption_verbose,"The image shows two kites caught in a tree. One kite is predominantly red with some additional colors, while the other is blue with wave patterns and a cartoon face. The kites are positioned among bare branches, and there are leaves present on some branches. The background appears cloudy, suggesting overcast weather.",caption_gpt4o,1746825992625,0,informativity.json,YES,caption_gpt4o,sampled_images_corrected_format_2/000000561714.jpg,5.847,caption_verbose,left,['left'],Fri May 09 2025 14:17:34 GMT-0700 (Pacific Daylight Time),1746825454632,8.96655,7,-OPqwLCbv6edoBRQxhfs,4
1,31,no comment. all was well,"In a scene depicting the natural world, there are two zebras positioned closely together, standing side by side, on a field characterized by its dirt surface. The two zebras are neighboring each other, creating a visual representation of their cohabitation in this particular environment, which consists primarily of earth rather than grass or other forms of vegetation.",caption_verbose,Two zebra standing next to each other on a dirt field.,caption_coco,1746825992625,0,informativity.json,YES,caption_verbose,sampled_images_corrected_format_2/000000536716.jpg,3.44,caption_coco,right,['right'],Fri May 09 2025 14:17:34 GMT-0700 (Pacific Daylight Time),1746825454632,8.96655,8,-OPqwLCbv6edoBRQxhfs,4
1,31,no comment. all was well,"A young man is engaged in the act of brushing his teeth, performing this daily hygiene routine while also wearing a pair of glasses that rest upon his nose.",caption_verbose,"A young man wearing glasses is brushing his teeth, with a toothbrush in his mouth, while someone takes his picture.",caption_composite,1746825992625,0,informativity.json,YES,caption_verbose,sampled_images_corrected_format_2/000000104543.jpg,3.546,caption_composite,right,['right'],Fri May 09 2025 14:17:34 GMT-0700 (Pacific Daylight Time),1746825454632,8.96655,9,-OPqwLCbv6edoBRQxhfs,4
