HitCorrect,age,comments,descr_left,descr_left_condition,descr_right,descr_right_condition,endTime,enjoyment,experiment_id,languages,nonselected_descr_condition,picture,rt_trial,selected_descr_condition,selected_descr_position,selections,startDate,startTime,timeSpent,trial_number,submission_id,anon_id
1,36,,"The image shows a plate with a sandwich and a side of collard greens. The sandwich consists of sliced sausage placed on a white bread bun, topped with pickle slices. Next to the sandwich, there is a small bowl of dark green collard greens. The items are presented on a paper with a printed logo.",caption_gpt4o,"This meal consists of a burger made from sausage, which serves as the primary protein component, and it is accompanied by pickles that add a tangy flavor. Additionally, on the side, there is a serving of greens, which may include a variety of leafy vegetables, providing a fresh and healthy contrast to the rich and savory sausage burger.",caption_verbose,1746818097774,2,preference.json,English,caption_verbose,sampled_images_corrected_format_2/000000159924.jpg,31.209,caption_gpt4o,left,['left'],Fri May 09 2025 12:08:16 GMT-0700 (Pacific Daylight Time),1746817696417,6.689283333333333,1,-OPqTDJgWdutglPeojsK,0
1,36,,A man wearing a baseball hat tossing a frisbee.,caption_coco,"The image shows a man wearing a gray and white striped hooded sweatshirt and a baseball cap. He is outdoors, mid-motion, preparing to throw a frisbee. The background features a dirt path and sparse vegetation, suggesting a natural, open area. The lighting appears somewhat muted, indicating it may be in the late afternoon or evening.",caption_gpt4o,1746818097774,2,preference.json,English,caption_coco,sampled_images_corrected_format_2/000000403349.jpg,15.361,caption_gpt4o,right,['right'],Fri May 09 2025 12:08:16 GMT-0700 (Pacific Daylight Time),1746817696417,6.689283333333333,2,-OPqTDJgWdutglPeojsK,0
1,36,,"The image depicts a black bear standing on a rocky terrain. The bear has a thick fur coat and is facing slightly toward the right. The background consists of various rocks, some covered in moss or barnacles, and there is sparse grass in the area. The setting appears to be natural and rugged, with mixed textures from the rocks and the bear's fur.",caption_gpt4o,a black bear walks across a big field,caption_coco,1746818097774,2,preference.json,English,caption_coco,sampled_images_corrected_format_2/000000289354.jpg,19.322,caption_gpt4o,left,['left'],Fri May 09 2025 12:08:16 GMT-0700 (Pacific Daylight Time),1746817696417,6.689283333333333,3,-OPqTDJgWdutglPeojsK,0
1,36,,"The image features a close-up view of an individual who is gripping a hot dog. This detail-oriented perspective allows for a clear focus on the person's hand as they hold the food item, providing insight into the scene where the hot dog is being prepared to be eaten or enjoyed.",caption_verbose,"The image features a hot dog placed inside a bun. The bun is light in color and appears soft, partially wrapped in white paper. A sausage is visible within the bun, and a thick line of yellow mustard is applied along the top of the sausage. The hand holding the hot dog is partially visible in the bottom left of the image.",caption_gpt4o,1746818097774,2,preference.json,English,caption_verbose,sampled_images_corrected_format_2/000000506873.jpg,18.891,caption_gpt4o,right,['right'],Fri May 09 2025 12:08:16 GMT-0700 (Pacific Daylight Time),1746817696417,6.689283333333333,4,-OPqTDJgWdutglPeojsK,0
1,36,,A giraffe seen from a distance through trees,caption_coco,"A lone giraffe walks across a lush green field, moving gracefully down the middle of a forest area. It is seen from a distance through trees, as it stands near a grove of tall trees, blending with the surrounding foliage while traversing the grass.",caption_composite,1746818097774,2,preference.json,English,caption_coco,sampled_images_corrected_format_2/000000345826.jpg,7.427,caption_composite,right,['right'],Fri May 09 2025 12:08:16 GMT-0700 (Pacific Daylight Time),1746817696417,6.689283333333333,5,-OPqTDJgWdutglPeojsK,0
1,36,,"Two zebras are standing next to each other in a park, walking on the grass under a shady tree, while also grazing in a field near some trees.",caption_composite,Two zebras are in the grass near some trees.,caption_coco,1746818097774,2,preference.json,English,caption_coco,sampled_images_corrected_format_2/000000053916.jpg,13.359,caption_composite,left,['left'],Fri May 09 2025 12:08:16 GMT-0700 (Pacific Daylight Time),1746817696417,6.689283333333333,6,-OPqTDJgWdutglPeojsK,0
1,36,,"A domestic cat is positioned comfortably on the surface of a wooden bench that is situated within a park environment. The cat is resting on top of the bench, which is crafted from wood, and this bench is located in an area designated as a park, indicating a space that is typically used for recreational activities, relaxation, or enjoying nature.",caption_verbose,"A small grey striped cat is sleeping on a wooden bench in a park, laying comfortably and enjoying the outdoor environment. The bench is situated outside, providing a serene setting for the cat’s rest, and a close-up view reveals the cat’s relaxed posture as it peacefully dozes off.",caption_composite,1746818097774,2,preference.json,English,caption_verbose,sampled_images_corrected_format_2/000000337435.jpg,15.895,caption_composite,right,['right'],Fri May 09 2025 12:08:16 GMT-0700 (Pacific Daylight Time),1746817696417,6.689283333333333,7,-OPqTDJgWdutglPeojsK,0
1,36,,A man takes a bite of some food in the middle of a push up. ,caption_coco,"A man is performing a one-handed push-up while simultaneously eating, balancing himself on one arm as he holds his body up. He is positioned on a mat, and during this exercise, he takes a bite of some food, demonstrating his ability to combine physical activity with eating.",caption_composite,1746818097774,2,preference.json,English,caption_coco,sampled_images_corrected_format_2/000000438186.jpg,9.22,caption_composite,right,['right'],Fri May 09 2025 12:08:16 GMT-0700 (Pacific Daylight Time),1746817696417,6.689283333333333,8,-OPqTDJgWdutglPeojsK,0
1,36,,"A large adult bear, accompanied by two of its young cubs, is making its way through a flowing river. The bear, being the mother or protector, is leading the two small cubs as they carefully wade through the water together, navigating the currents and aquatic surroundings.",caption_verbose,"A brown bear, accompanied by her two young cubs, is walking across a shallow river. The trio of bears is wading through the water, with the mother bear leading the way as they navigate the river's flow.",caption_composite,1746818097774,2,preference.json,English,caption_composite,sampled_images_corrected_format_2/000000434602.jpg,10.872,caption_verbose,left,['left'],Fri May 09 2025 12:08:16 GMT-0700 (Pacific Daylight Time),1746817696417,6.689283333333333,9,-OPqTDJgWdutglPeojsK,0
1,36,,"In a library setting, there is a canine companion of a deep black hue, commonly referred to as a black dog, that is present alongside its human owner. The two of them are located within the confines of the library, surrounded by books and the serene atmosphere that typically characterizes such a space dedicated to reading and learning.",caption_verbose,a black dog with its owner in the library,caption_coco,1746818097774,2,preference.json,English,caption_verbose,sampled_images_corrected_format_2/000000074001.jpg,8.406,caption_coco,right,['right'],Fri May 09 2025 12:08:16 GMT-0700 (Pacific Daylight Time),1746817696417,6.689283333333333,10,-OPqTDJgWdutglPeojsK,0
1,36,,a plate with some bread fruits and vegetables on it ,caption_coco,"On a plate, there is a selection of various items that include several pieces of bread, as well as an assortment of fruits and vegetables. This arrangement presents a combination of different food types, showcasing both the carbohydrate-rich bread and the fresh produce in the form of fruits and vegetables, all placed neatly on the surface of the plate.",caption_verbose,1746818097774,2,preference.json,English,caption_verbose,sampled_images_corrected_format_2/000000021397.jpg,10.064,caption_coco,left,['left'],Fri May 09 2025 12:08:16 GMT-0700 (Pacific Daylight Time),1746817696417,6.689283333333333,11,-OPqTDJgWdutglPeojsK,0
1,36,,Two colorful kites are caught up in the trees. ,caption_coco,"In the midst of a natural setting, there are two kites that are vividly decorated with a variety of bright and vibrant colors, and they have become ensnared among the branches of several trees.",caption_verbose,1746818097774,2,preference.json,English,caption_verbose,sampled_images_corrected_format_2/000000561714.jpg,6.722,caption_coco,left,['left'],Fri May 09 2025 12:08:16 GMT-0700 (Pacific Daylight Time),1746817696417,6.689283333333333,12,-OPqTDJgWdutglPeojsK,0
1,36,,A young man brushing his teeth while wearing glasses.,caption_coco,"A young man wearing glasses is brushing his teeth, with a toothbrush in his mouth, while someone takes his picture.",caption_composite,1746818097774,2,preference.json,English,caption_composite,sampled_images_corrected_format_2/000000104543.jpg,7.998,caption_coco,left,['left'],Fri May 09 2025 12:08:16 GMT-0700 (Pacific Daylight Time),1746817696417,6.689283333333333,13,-OPqTDJgWdutglPeojsK,0
1,36,,"A diminutive avian creature is perched upon a slender limb, situated in a densely vegetated and brush-filled environment. The surroundings consist of an intricate network of shrubs and plants, providing a rich backdrop for this small bird as it maintains its position on the branch.",caption_verbose,Small bird standing on branch in dense brushy area.,caption_coco,1746818097774,2,preference.json,English,caption_verbose,sampled_images_corrected_format_2/000000134605.jpg,10.414,caption_coco,right,['right'],Fri May 09 2025 12:08:16 GMT-0700 (Pacific Daylight Time),1746817696417,6.689283333333333,14,-OPqTDJgWdutglPeojsK,0
1,36,,A horse in a field has a striped blanket on it.,caption_coco,"A brown horse is standing in a fenced area, wearing a striped horse blanket. This horse is positioned in the grass of a field, next to a fence, and is shown within a pen. The blanket covers the horse as it stands still in its designated space.",caption_composite,1746818097774,2,preference.json,English,caption_coco,sampled_images_corrected_format_2/000000526035.jpg,11.137,caption_composite,right,['right'],Fri May 09 2025 12:08:16 GMT-0700 (Pacific Daylight Time),1746817696417,6.689283333333333,15,-OPqTDJgWdutglPeojsK,0
1,36,,"A golden dog sits in the grass near a yellow Frisbee, laying in the shade of the yard with its mouth open.",caption_composite,"The image features a golden retriever lying on green grass. The dog is positioned to the right side of the frame, facing forward, with its tongue out. In front of the dog is a yellow frisbee. The background includes some trees with green foliage, and the area is well-lit, suggesting it is daytime. There is also a wooden fence visible in the distance.",caption_gpt4o,1746818097774,2,preference.json,English,caption_composite,sampled_images_corrected_format_2/000000293130.jpg,11.476,caption_gpt4o,right,['right'],Fri May 09 2025 12:08:16 GMT-0700 (Pacific Daylight Time),1746817696417,6.689283333333333,16,-OPqTDJgWdutglPeojsK,0
1,36,,A fenced in area with a grass field and three zebra together near four green poles.,caption_coco,"There is a designated enclosed space that is surrounded by a fence, within which one can observe a grassy field that covers the ground. In this grassy area, there are three zebras that are gathered together. Additionally, there are four green poles positioned within this enclosed field, contributing to the overall setting of the area.",caption_verbose,1746818097774,2,preference.json,English,caption_coco,sampled_images_corrected_format_2/000000489995.jpg,14.496,caption_verbose,right,['right'],Fri May 09 2025 12:08:16 GMT-0700 (Pacific Daylight Time),1746817696417,6.689283333333333,17,-OPqTDJgWdutglPeojsK,0
1,36,,"A zebra is currently situated within its natural habitat, which is characterized by a landscape that typically includes grasslands, savannas, or similar environments conducive to their lifestyle. In this particular instance, the zebra is moving towards its left, indicating a specific direction of travel as it navigates through its surroundings.",caption_verbose,The image depicts a zebra walking through a grassy area. The zebra has distinctive black and white stripes and is situated in a landscape that includes tall grass and some shrubs. The background shows blurred green vegetation and a clear sky. The ground appears dry and reddish-brown in color. The zebra's posture is upright as it moves along the terrain.,caption_gpt4o,1746818097774,2,preference.json,English,caption_verbose,sampled_images_corrected_format_2/000000251502.jpg,15.633,caption_gpt4o,right,['right'],Fri May 09 2025 12:08:16 GMT-0700 (Pacific Daylight Time),1746817696417,6.689283333333333,18,-OPqTDJgWdutglPeojsK,0
1,36,,Dog eating a sandwich that is being held by a person.,caption_coco,"A dog is in the process of enjoying a sandwich, which is being held by an individual. The person is gripping the sandwich with their hand, while the dog is positioned in a way that allows it to take bites or nibbles from the food item that is being offered to it.",caption_verbose,1746818097774,2,preference.json,English,caption_coco,sampled_images_corrected_format_2/000000397161.jpg,8.757,caption_verbose,right,['right'],Fri May 09 2025 12:08:16 GMT-0700 (Pacific Daylight Time),1746817696417,6.689283333333333,19,-OPqTDJgWdutglPeojsK,0
1,36,,"The image shows a grassy field with several cows. There are two brown and white cows prominently standing in the foreground, and a few black and white cows nearby, some standing and others lying down. In the background, additional cows can be seen, and there are trees and shrubs surrounding the area. The grass appears lush and green, indicating a well-maintained pasture.",caption_gpt4o,A herd of cattle standing on a  lush green field.,caption_coco,1746818097774,2,preference.json,English,caption_gpt4o,sampled_images_corrected_format_2/000000344897.jpg,13.653,caption_coco,right,['right'],Fri May 09 2025 12:08:16 GMT-0700 (Pacific Daylight Time),1746817696417,6.689283333333333,20,-OPqTDJgWdutglPeojsK,0
1,36,,"Two zebras stand next to each other on a dirt field, while a couple of other zebras explore in the sand next to some chopped wood. In a zoo setting, zebras wander around their pen, with two of them walking around as well. Among the group, baby zebras are also present, moving around to explore their environment.",caption_composite,"The image shows two zebras in a natural outdoor setting. One zebra is walking towards the right, while the other is facing away, near a log. The ground is sandy, and there are some wooden logs and tree stumps visible in the background. The zebras have distinctive black and white stripes.",caption_gpt4o,1746818097774,2,preference.json,English,caption_composite,sampled_images_corrected_format_2/000000536716.jpg,13.534,caption_gpt4o,right,['right'],Fri May 09 2025 12:08:16 GMT-0700 (Pacific Daylight Time),1746817696417,6.689283333333333,21,-OPqTDJgWdutglPeojsK,0
1,36,,Many birds sit in the top branches of a tree. ,caption_coco,"A tree filled with many birds under a blue sky features a group of large red birds, as well as several parakeets, perched in the top branches. These birds are sitting together, creating a lively scene among the treetops.",caption_composite,1746818097774,2,preference.json,English,caption_composite,sampled_images_corrected_format_2/000000056134.jpg,8.483,caption_coco,left,['left'],Fri May 09 2025 12:08:16 GMT-0700 (Pacific Daylight Time),1746817696417,6.689283333333333,22,-OPqTDJgWdutglPeojsK,0
1,36,,"The image shows a row of toy cows lined up next to each other. Each cow is primarily white with distinct black patches. The cows are viewed from a top-down perspective, making their shapes and arrangements clearly visible. The surface of the cows appears textured, indicating realistic details. The background is minimal and unobtrusive, focusing attention on the cows.",caption_gpt4o,"A row of very cute black and white cows is lined up side by side, with baby cows standing next to them. This bunch of cattle is standing together, creating a pleasant scene of cows and their young.",caption_composite,1746818097774,2,preference.json,English,caption_gpt4o,sampled_images_corrected_format_2/000000032909.jpg,15.245,caption_composite,right,['right'],Fri May 09 2025 12:08:16 GMT-0700 (Pacific Daylight Time),1746817696417,6.689283333333333,23,-OPqTDJgWdutglPeojsK,0
1,36,,"A little girl sits in an open suitcase by a bookshelf, playing inside the luggage bag on a wooden floor. The scene features the small child engaging with her surroundings as she enjoys the unique space created by the suitcase next to a bookcase.",caption_composite,"The image shows a child sitting inside a black bag or suitcase placed on a flat surface. The child has short hair and is wearing a white shirt. The background includes a bookshelf filled with various books, a blue basket, and multiple objects such as fans and boxes. There is also a piece of cardboard on the floor near the bag. The lighting in the room is bright.",caption_gpt4o,1746818097774,2,preference.json,English,caption_composite,sampled_images_corrected_format_2/000000233143.jpg,17.32,caption_gpt4o,right,['right'],Fri May 09 2025 12:08:16 GMT-0700 (Pacific Daylight Time),1746817696417,6.689283333333333,24,-OPqTDJgWdutglPeojsK,0
1,36,,"In a sunny field, two brown bear cubs are play fighting and tussling together in the grass. They are seen wrestling near some rocks, rolling around and enjoying their time in the open. Their playful interactions showcase their youthful energy and curiosity as they engage in various playful antics.",caption_composite,two young bears are play fighting in the open,caption_coco,1746818097774,2,preference.json,English,caption_coco,sampled_images_corrected_format_2/000000377282.jpg,9.418,caption_composite,left,['left'],Fri May 09 2025 12:08:16 GMT-0700 (Pacific Daylight Time),1746817696417,6.689283333333333,25,-OPqTDJgWdutglPeojsK,0
1,36,,"A man is positioned in a skiing posture, gripping a pair of skiing poles firmly in his hands. He is actively engaged in the sport as he bends his knees and body forward while navigating down a snow-covered slope on his skis.",caption_verbose,"A man wearing a colorful outfit is skiing down a steep slope on a sunny day. He is crouched low, bending while holding skiing poles, as he slides down the hill in motion.",caption_composite,1746818097774,2,preference.json,English,caption_verbose,sampled_images_corrected_format_2/000000469913.jpg,11.46,caption_composite,right,['right'],Fri May 09 2025 12:08:16 GMT-0700 (Pacific Daylight Time),1746817696417,6.689283333333333,26,-OPqTDJgWdutglPeojsK,0
1,36,,"A little boy is engaged in a game of frisbee, raring back with a red frisbee in a lush green field. He is actively tossing the frisbee across the yard on a sunny day, with the frisbee firmly in his hands as he prepares to throw.",caption_composite,A boy in the yard throwing a Frisbee on a sunny day.,caption_coco,1746818097774,2,preference.json,English,caption_composite,sampled_images_corrected_format_2/000000517468.jpg,6.576,caption_coco,right,['right'],Fri May 09 2025 12:08:16 GMT-0700 (Pacific Daylight Time),1746817696417,6.689283333333333,27,-OPqTDJgWdutglPeojsK,0
1,36,,"A suitcase is positioned on its side, with a DVD titled ""Gladiator"" resting atop it. Next to the suitcase, a travel luggage bag includes the Gladiator movie DVD case prominently displayed. Additionally, a computer case features the same Gladiator DVD placed on top of it.",caption_composite,a gladiator movie dvd case on a travel luggage bag,caption_coco,1746818097774,2,preference.json,English,caption_composite,sampled_images_corrected_format_2/000000272097.jpg,10.591,caption_coco,right,['right'],Fri May 09 2025 12:08:16 GMT-0700 (Pacific Daylight Time),1746817696417,6.689283333333333,28,-OPqTDJgWdutglPeojsK,0
1,36,,"A surfer skillfully rides the crest of a wave, skillfully maneuvering their board to catch the powerful force of the ocean. As they glide along the surface, the surfer initiates a spinning motion, pivoting their body and the board around in a circular fashion, showcasing their agility and control within the dynamic and ever-changing environment of the sea.",caption_verbose,"A young man is surfing in the ocean waves, skillfully catching a wave and spinning around with agility. This lad rides the wave like a surfboard champion, demonstrating his prowess as he navigates the water. Overall, the scene depicts a man surfing a wave in the ocean, embodying the dynamics of the sport.",caption_composite,1746818097774,2,preference.json,English,caption_composite,sampled_images_corrected_format_2/000000537300.jpg,15.351,caption_verbose,left,['left'],Fri May 09 2025 12:08:16 GMT-0700 (Pacific Daylight Time),1746817696417,6.689283333333333,29,-OPqTDJgWdutglPeojsK,0
1,36,,a man wearing a gray shirt is playing a video game,caption_coco,"A man is engaged in the activity of playing a video game, and he is dressed in a shirt that is gray in color.",caption_verbose,1746818097774,2,preference.json,English,caption_verbose,sampled_images_corrected_format_2/000000274977.jpg,5.915,caption_coco,left,['left'],Fri May 09 2025 12:08:16 GMT-0700 (Pacific Daylight Time),1746817696417,6.689283333333333,30,-OPqTDJgWdutglPeojsK,0
1,34,,"There is a DVD case that contains a film featuring gladiators, which is prominently placed on top of a piece of travel luggage. This luggage bag is being used for travel purposes and is currently showcasing this specific DVD case that pertains to the movie genre focused on gladiatorial combat.",caption_verbose,a gladiator movie dvd case on a travel luggage bag,caption_coco,1746818106802,1,preference.json,English,caption_verbose,sampled_images_corrected_format_2/000000272097.jpg,48.66,caption_coco,right,['right'],Fri May 09 2025 15:08:53 GMT-0400 (Eastern Daylight Time),1746817733547,6.220916666666667,1,-OPqTG1DJI_F_AkYyc8-,1
1,34,,"The image shows a man wearing a gray and white striped hooded sweatshirt and a baseball cap. He is outdoors, mid-motion, preparing to throw a frisbee. The background features a dirt path and sparse vegetation, suggesting a natural, open area. The lighting appears somewhat muted, indicating it may be in the late afternoon or evening.",caption_gpt4o,A man wearing a baseball hat tossing a frisbee.,caption_coco,1746818106802,1,preference.json,English,caption_gpt4o,sampled_images_corrected_format_2/000000403349.jpg,17.478,caption_coco,right,['right'],Fri May 09 2025 15:08:53 GMT-0400 (Eastern Daylight Time),1746817733547,6.220916666666667,2,-OPqTG1DJI_F_AkYyc8-,1
1,34,,A bear and two cubs wading through a river. ,caption_coco,"A large adult bear, accompanied by two of its young cubs, is making its way through a flowing river. The bear, being the mother or protector, is leading the two small cubs as they carefully wade through the water together, navigating the currents and aquatic surroundings.",caption_verbose,1746818106802,1,preference.json,English,caption_verbose,sampled_images_corrected_format_2/000000434602.jpg,14.206,caption_coco,left,['left'],Fri May 09 2025 15:08:53 GMT-0400 (Eastern Daylight Time),1746817733547,6.220916666666667,3,-OPqTG1DJI_F_AkYyc8-,1
1,34,,A cat laying on top of a wooden bench in a park.,caption_coco,"A small grey striped cat is sleeping on a wooden bench in a park, laying comfortably and enjoying the outdoor environment. The bench is situated outside, providing a serene setting for the cat’s rest, and a close-up view reveals the cat’s relaxed posture as it peacefully dozes off.",caption_composite,1746818106802,1,preference.json,English,caption_composite,sampled_images_corrected_format_2/000000337435.jpg,5.198,caption_coco,left,['left'],Fri May 09 2025 15:08:53 GMT-0400 (Eastern Daylight Time),1746817733547,6.220916666666667,4,-OPqTG1DJI_F_AkYyc8-,1
1,34,,"The image shows a plate with a sandwich and a side of collard greens. The sandwich consists of sliced sausage placed on a white bread bun, topped with pickle slices. Next to the sandwich, there is a small bowl of dark green collard greens. The items are presented on a paper with a printed logo.",caption_gpt4o,Sausage burger with pickles and a side of greens,caption_coco,1746818106802,1,preference.json,English,caption_gpt4o,sampled_images_corrected_format_2/000000159924.jpg,6.479,caption_coco,right,['right'],Fri May 09 2025 15:08:53 GMT-0400 (Eastern Daylight Time),1746817733547,6.220916666666667,5,-OPqTG1DJI_F_AkYyc8-,1
1,34,,"On a plate, there is a selection of various items that include several pieces of bread, as well as an assortment of fruits and vegetables. This arrangement presents a combination of different food types, showcasing both the carbohydrate-rich bread and the fresh produce in the form of fruits and vegetables, all placed neatly on the surface of the plate.",caption_verbose,"The yellow plate features an assortment of food items, including slices of bread, an omelet, and a variety of fruits and vegetables such as oranges, apples, and tomatoes. This combination of healthy options presents a balanced meal on the plate.",caption_composite,1746818106802,1,preference.json,English,caption_verbose,sampled_images_corrected_format_2/000000021397.jpg,9.502,caption_composite,right,['right'],Fri May 09 2025 15:08:53 GMT-0400 (Eastern Daylight Time),1746817733547,6.220916666666667,6,-OPqTG1DJI_F_AkYyc8-,1
1,34,,a black dog with its owner in the library,caption_coco,"In a library setting, there is a canine companion of a deep black hue, commonly referred to as a black dog, that is present alongside its human owner. The two of them are located within the confines of the library, surrounded by books and the serene atmosphere that typically characterizes such a space dedicated to reading and learning.",caption_verbose,1746818106802,1,preference.json,English,caption_verbose,sampled_images_corrected_format_2/000000074001.jpg,8.758,caption_coco,left,['left'],Fri May 09 2025 15:08:53 GMT-0400 (Eastern Daylight Time),1746817733547,6.220916666666667,7,-OPqTG1DJI_F_AkYyc8-,1
1,34,,"The image shows a close-up of a dog's face, primarily focusing on its mouth. The dog appears to be holding a piece of bread in its mouth. A human hand is visible, gently holding another piece of bread toward the dog. The background is blurred, making it difficult to determine the setting. The dog's fur is predominantly white with black markings.",caption_gpt4o,Dog eating a sandwich that is being held by a person.,caption_coco,1746818106802,1,preference.json,English,caption_gpt4o,sampled_images_corrected_format_2/000000397161.jpg,3.487,caption_coco,right,['right'],Fri May 09 2025 15:08:53 GMT-0400 (Eastern Daylight Time),1746817733547,6.220916666666667,8,-OPqTG1DJI_F_AkYyc8-,1
1,34,,"Two zebras stand next to each other on a dirt field, while a couple of other zebras explore in the sand next to some chopped wood. In a zoo setting, zebras wander around their pen, with two of them walking around as well. Among the group, baby zebras are also present, moving around to explore their environment.",caption_composite,"In a scene depicting the natural world, there are two zebras positioned closely together, standing side by side, on a field characterized by its dirt surface. The two zebras are neighboring each other, creating a visual representation of their cohabitation in this particular environment, which consists primarily of earth rather than grass or other forms of vegetation.",caption_verbose,1746818106802,1,preference.json,English,caption_verbose,sampled_images_corrected_format_2/000000536716.jpg,10.543,caption_composite,left,['left'],Fri May 09 2025 15:08:53 GMT-0400 (Eastern Daylight Time),1746817733547,6.220916666666667,9,-OPqTG1DJI_F_AkYyc8-,1
1,34,,"The image shows a grassy field with several cows. There are two brown and white cows prominently standing in the foreground, and a few black and white cows nearby, some standing and others lying down. In the background, additional cows can be seen, and there are trees and shrubs surrounding the area. The grass appears lush and green, indicating a well-maintained pasture.",caption_gpt4o,A herd of cattle standing on a  lush green field.,caption_coco,1746818106802,1,preference.json,English,caption_gpt4o,sampled_images_corrected_format_2/000000344897.jpg,3.231,caption_coco,right,['right'],Fri May 09 2025 15:08:53 GMT-0400 (Eastern Daylight Time),1746817733547,6.220916666666667,10,-OPqTG1DJI_F_AkYyc8-,1
1,34,,"The image shows two zebras in a field. One zebra is walking towards the viewer, while the other is slightly in the background, facing away. The zebras are positioned in an area with grass and trees. The trees are dark and leafy, and there is open space in the grassy area where the zebras are located. The lighting suggests it is daytime.",caption_gpt4o,"In a specific area characterized by the presence of lush green grass, there are two zebras that can be observed. They are situated in close proximity to a collection of trees, which adds a natural backdrop to the scene.",caption_verbose,1746818106802,1,preference.json,English,caption_gpt4o,sampled_images_corrected_format_2/000000053916.jpg,3.759,caption_verbose,right,['right'],Fri May 09 2025 15:08:53 GMT-0400 (Eastern Daylight Time),1746817733547,6.220916666666667,11,-OPqTG1DJI_F_AkYyc8-,1
1,34,,"A close-up image features a hot dog in a bun, wrapped in white paper and prominently smeared with an abundance of yellow mustard. The hot dog is held by a person, showcasing the vivid contrast between the glistening mustard and the bun.",caption_composite,"The image features a hot dog placed inside a bun. The bun is light in color and appears soft, partially wrapped in white paper. A sausage is visible within the bun, and a thick line of yellow mustard is applied along the top of the sausage. The hand holding the hot dog is partially visible in the bottom left of the image.",caption_gpt4o,1746818106802,1,preference.json,English,caption_gpt4o,sampled_images_corrected_format_2/000000506873.jpg,8.655,caption_composite,left,['left'],Fri May 09 2025 15:08:53 GMT-0400 (Eastern Daylight Time),1746817733547,6.220916666666667,12,-OPqTG1DJI_F_AkYyc8-,1
1,34,,a black bear walks across a big field,caption_coco,"A large black bear is seen moving steadily across an expansive field that stretches out before it. The bear, characterized by its dark fur, makes its way across the open space, navigating the area as it wanders from one side of the field to the other.",caption_verbose,1746818106802,1,preference.json,English,caption_verbose,sampled_images_corrected_format_2/000000289354.jpg,8.967,caption_coco,left,['left'],Fri May 09 2025 15:08:53 GMT-0400 (Eastern Daylight Time),1746817733547,6.220916666666667,13,-OPqTG1DJI_F_AkYyc8-,1
1,34,,"The image shows two zebras running in a grassy area. They have distinct black and white stripes. In the background, there are tall green poles, and a fenced area is visible. A vehicle, painted with a similar black and white striped pattern, is parked nearby. The sky is clear, with some clouds, and there are trees in the background.",caption_gpt4o,A fenced in area with a grass field and three zebra together near four green poles.,caption_coco,1746818106802,1,preference.json,English,caption_gpt4o,sampled_images_corrected_format_2/000000489995.jpg,3.775,caption_coco,right,['right'],Fri May 09 2025 15:08:53 GMT-0400 (Eastern Daylight Time),1746817733547,6.220916666666667,14,-OPqTG1DJI_F_AkYyc8-,1
1,34,,"A lone giraffe walks across a lush green field, moving gracefully down the middle of a forest area. It is seen from a distance through trees, as it stands near a grove of tall trees, blending with the surrounding foliage while traversing the grass.",caption_composite,"The image shows a giraffe standing among greenery. The giraffe is facing away from the viewer, with a long neck extending upwards. Its body is covered in a pattern of brown and cream patches. The surrounding area consists of low bushes and trees, creating a natural habitat. The background is blurred, focusing attention on the giraffe.",caption_gpt4o,1746818106802,1,preference.json,English,caption_gpt4o,sampled_images_corrected_format_2/000000345826.jpg,5.519,caption_composite,left,['left'],Fri May 09 2025 15:08:53 GMT-0400 (Eastern Daylight Time),1746817733547,6.220916666666667,15,-OPqTG1DJI_F_AkYyc8-,1
1,34,,Zebra in its natural habitat going to his left.,caption_coco,"A zebra is currently situated within its natural habitat, which is characterized by a landscape that typically includes grasslands, savannas, or similar environments conducive to their lifestyle. In this particular instance, the zebra is moving towards its left, indicating a specific direction of travel as it navigates through its surroundings.",caption_verbose,1746818106802,1,preference.json,English,caption_verbose,sampled_images_corrected_format_2/000000251502.jpg,3.759,caption_coco,left,['left'],Fri May 09 2025 15:08:53 GMT-0400 (Eastern Daylight Time),1746817733547,6.220916666666667,16,-OPqTG1DJI_F_AkYyc8-,1
1,34,,"The image features a golden retriever lying on green grass. The dog is positioned to the right side of the frame, facing forward, with its tongue out. In front of the dog is a yellow frisbee. The background includes some trees with green foliage, and the area is well-lit, suggesting it is daytime. There is also a wooden fence visible in the distance.",caption_gpt4o,"A golden dog sits in the grass near a yellow Frisbee, laying in the shade of the yard with its mouth open.",caption_composite,1746818106802,1,preference.json,English,caption_gpt4o,sampled_images_corrected_format_2/000000293130.jpg,2.727,caption_composite,right,['right'],Fri May 09 2025 15:08:53 GMT-0400 (Eastern Daylight Time),1746817733547,6.220916666666667,17,-OPqTG1DJI_F_AkYyc8-,1
1,34,,"A little girl sits in an open suitcase by a bookshelf, playing inside the luggage bag on a wooden floor. The scene features the small child engaging with her surroundings as she enjoys the unique space created by the suitcase next to a bookcase.",caption_composite,"The image shows a child sitting inside a black bag or suitcase placed on a flat surface. The child has short hair and is wearing a white shirt. The background includes a bookshelf filled with various books, a blue basket, and multiple objects such as fans and boxes. There is also a piece of cardboard on the floor near the bag. The lighting in the room is bright.",caption_gpt4o,1746818106802,1,preference.json,English,caption_gpt4o,sampled_images_corrected_format_2/000000233143.jpg,4.174,caption_composite,left,['left'],Fri May 09 2025 15:08:53 GMT-0400 (Eastern Daylight Time),1746817733547,6.220916666666667,18,-OPqTG1DJI_F_AkYyc8-,1
1,34,,"The image shows two kites caught in a tree. One kite is predominantly red with some additional colors, while the other is blue with wave patterns and a cartoon face. The kites are positioned among bare branches, and there are leaves present on some branches. The background appears cloudy, suggesting overcast weather.",caption_gpt4o,"In a row of bare trees, two colorful kites are caught, with a couple of them stuck in the leaf-free branches of a somewhat bare tree.",caption_composite,1746818106802,1,preference.json,English,caption_gpt4o,sampled_images_corrected_format_2/000000561714.jpg,4.071,caption_composite,right,"['right', 'right']",Fri May 09 2025 15:08:53 GMT-0400 (Eastern Daylight Time),1746817733547,6.220916666666667,19,-OPqTG1DJI_F_AkYyc8-,1
1,34,,"The image shows two bears engaged in physical interaction on a grassy area. One bear is positioned to the left, exhibiting a lighter brown color, while the other bear, located to the right, is darker. They are situated near a rocky outcropping, with tall grass surrounding them. The setting appears to be natural and outdoors.",caption_gpt4o,"In a sunny field, two brown bear cubs are play fighting and tussling together in the grass. They are seen wrestling near some rocks, rolling around and enjoying their time in the open. Their playful interactions showcase their youthful energy and curiosity as they engage in various playful antics.",caption_composite,1746818106802,1,preference.json,English,caption_gpt4o,sampled_images_corrected_format_2/000000377282.jpg,10.399,caption_composite,right,['right'],Fri May 09 2025 15:08:53 GMT-0400 (Eastern Daylight Time),1746817733547,6.220916666666667,20,-OPqTG1DJI_F_AkYyc8-,1
1,34,,"A man is engaged in the physical activity of performing a push-up, which involves lowering and raising his body by using his arms in a repetitive motion. In the midst of completing this exercise, he takes a moment to take a bite of some food, which brings an interesting juxtaposition between his workout and the act of eating.",caption_verbose,A man takes a bite of some food in the middle of a push up. ,caption_coco,1746818106802,1,preference.json,English,caption_verbose,sampled_images_corrected_format_2/000000438186.jpg,2.79,caption_coco,right,['right'],Fri May 09 2025 15:08:53 GMT-0400 (Eastern Daylight Time),1746817733547,6.220916666666667,21,-OPqTG1DJI_F_AkYyc8-,1
1,34,,"A young man is surfing in the ocean waves, skillfully catching a wave and spinning around with agility. This lad rides the wave like a surfboard champion, demonstrating his prowess as he navigates the water. Overall, the scene depicts a man surfing a wave in the ocean, embodying the dynamics of the sport.",caption_composite,"A surfer skillfully rides the crest of a wave, skillfully maneuvering their board to catch the powerful force of the ocean. As they glide along the surface, the surfer initiates a spinning motion, pivoting their body and the board around in a circular fashion, showcasing their agility and control within the dynamic and ever-changing environment of the sea.",caption_verbose,1746818106802,1,preference.json,English,caption_verbose,sampled_images_corrected_format_2/000000537300.jpg,2.84,caption_composite,left,['left'],Fri May 09 2025 15:08:53 GMT-0400 (Eastern Daylight Time),1746817733547,6.220916666666667,22,-OPqTG1DJI_F_AkYyc8-,1
1,34,,"The image shows a young male individual with glasses brushing his teeth with a blue toothbrush. He is positioned in front of a mirror, and the background features white tiled walls with a small decorative element visible. The person's face is partially obscured by the toothbrush, and he is wearing a black shirt. The lighting suggests it is a bathroom setting.",caption_gpt4o,"A young man is engaged in the act of brushing his teeth, performing this daily hygiene routine while also wearing a pair of glasses that rest upon his nose.",caption_verbose,1746818106802,1,preference.json,English,caption_gpt4o,sampled_images_corrected_format_2/000000104543.jpg,2.35,caption_verbose,right,['right'],Fri May 09 2025 15:08:53 GMT-0400 (Eastern Daylight Time),1746817733547,6.220916666666667,23,-OPqTG1DJI_F_AkYyc8-,1
1,34,,"A small bird is perched on a bare branch of a tree, surrounded by dense brushy areas and dry grass. It stands atop the thorny limb, observing its surroundings from this elevated position.",caption_composite,"The image shows a small bird perched on a thin branch. The bird has a light brown body with a slightly darker crown on its head and a small, conical bill. The background consists of dry, brown grasses and twigs, creating a natural setting. The focus is primarily on the bird, which is positioned to the left side of the frame.",caption_gpt4o,1746818106802,1,preference.json,English,caption_gpt4o,sampled_images_corrected_format_2/000000134605.jpg,2.87,caption_composite,left,['left'],Fri May 09 2025 15:08:53 GMT-0400 (Eastern Daylight Time),1746817733547,6.220916666666667,24,-OPqTG1DJI_F_AkYyc8-,1
1,34,,"A man is engaged in the activity of playing a video game, and he is dressed in a shirt that is gray in color.",caption_verbose,a man wearing a gray shirt is playing a video game,caption_coco,1746818106802,1,preference.json,English,caption_verbose,sampled_images_corrected_format_2/000000274977.jpg,2.839,caption_coco,right,['right'],Fri May 09 2025 15:08:53 GMT-0400 (Eastern Daylight Time),1746817733547,6.220916666666667,25,-OPqTG1DJI_F_AkYyc8-,1
1,34,,"A man is positioned in a skiing posture, gripping a pair of skiing poles firmly in his hands. He is actively engaged in the sport as he bends his knees and body forward while navigating down a snow-covered slope on his skis.",caption_verbose,"A man wearing a colorful outfit is skiing down a steep slope on a sunny day. He is crouched low, bending while holding skiing poles, as he slides down the hill in motion.",caption_composite,1746818106802,1,preference.json,English,caption_verbose,sampled_images_corrected_format_2/000000469913.jpg,2.767,caption_composite,right,['right'],Fri May 09 2025 15:08:53 GMT-0400 (Eastern Daylight Time),1746817733547,6.220916666666667,26,-OPqTG1DJI_F_AkYyc8-,1
1,34,,"A row of very cute black and white cows is lined up side by side, with baby cows standing next to them. This bunch of cattle is standing together, creating a pleasant scene of cows and their young.",caption_composite,Many black and white cows are standing in a row,caption_coco,1746818106802,1,preference.json,English,caption_composite,sampled_images_corrected_format_2/000000032909.jpg,3.462,caption_coco,right,['right'],Fri May 09 2025 15:08:53 GMT-0400 (Eastern Daylight Time),1746817733547,6.220916666666667,27,-OPqTG1DJI_F_AkYyc8-,1
1,34,,"The image features a horse standing in a grassy field. The horse is wearing a striped blanket. Surrounding the field, there are several fence posts, and the fencing encloses a rectangular area. In the background, there are greenhouses and trees. The sky is mostly cloudy with some rays of sunlight visible. There are utility poles in the distance.",caption_gpt4o,"In a spacious open area designated as a field, there exists a horse that is currently wearing a blanket featuring a striped pattern. This particular blanket is draped over the horse's body, providing it with an added layer of covering while it remains in the expansive setting of the field.",caption_verbose,1746818106802,1,preference.json,English,caption_gpt4o,sampled_images_corrected_format_2/000000526035.jpg,2.967,caption_verbose,right,['right'],Fri May 09 2025 15:08:53 GMT-0400 (Eastern Daylight Time),1746817733547,6.220916666666667,28,-OPqTG1DJI_F_AkYyc8-,1
1,34,,A boy in the yard throwing a Frisbee on a sunny day.,caption_coco,"A young boy is playing in the yard, engaging in the activity of throwing a Frisbee into the open space around him on a bright and sunny day. The weather is clear, providing a perfect outdoor environment for him to enjoy this recreational pastime.",caption_verbose,1746818106802,1,preference.json,English,caption_verbose,sampled_images_corrected_format_2/000000517468.jpg,2.175,caption_coco,left,['left'],Fri May 09 2025 15:08:53 GMT-0400 (Eastern Daylight Time),1746817733547,6.220916666666667,29,-OPqTG1DJI_F_AkYyc8-,1
1,34,,"A significant number of birds can be observed perched upon the uppermost branches of a tree, where they seem to find a suitable place to rest or perhaps to survey their surroundings from an elevated position among the foliage.",caption_verbose,"A tree filled with many birds under a blue sky features a group of large red birds, as well as several parakeets, perched in the top branches. These birds are sitting together, creating a lively scene among the treetops.",caption_composite,1746818106802,1,preference.json,English,caption_verbose,sampled_images_corrected_format_2/000000056134.jpg,6.534,caption_composite,right,['right'],Fri May 09 2025 15:08:53 GMT-0400 (Eastern Daylight Time),1746817733547,6.220916666666667,30,-OPqTG1DJI_F_AkYyc8-,1
1,37,NA,"A row of very cute black and white cows is lined up side by side, with baby cows standing next to them. This bunch of cattle is standing together, creating a pleasant scene of cows and their young.",caption_composite,"The image shows a row of toy cows lined up next to each other. Each cow is primarily white with distinct black patches. The cows are viewed from a top-down perspective, making their shapes and arrangements clearly visible. The surface of the cows appears textured, indicating realistic details. The background is minimal and unobtrusive, focusing attention on the cows.",caption_gpt4o,1746818153723,2,preference.json,English,caption_composite,sampled_images_corrected_format_2/000000032909.jpg,41.875,caption_gpt4o,right,['right'],Fri May 09 2025 15:07:59 GMT-0400 (Eastern Daylight Time),1746817679760,7.899383333333334,1,-OPqTR-8KSH3qMGXKAML,2
1,37,NA,"A golden dog sits in the grass near a yellow Frisbee, laying in the shade of the yard with its mouth open.",caption_composite,"The image features a golden retriever lying on green grass. The dog is positioned to the right side of the frame, facing forward, with its tongue out. In front of the dog is a yellow frisbee. The background includes some trees with green foliage, and the area is well-lit, suggesting it is daytime. There is also a wooden fence visible in the distance.",caption_gpt4o,1746818153723,2,preference.json,English,caption_gpt4o,sampled_images_corrected_format_2/000000293130.jpg,13.693,caption_composite,left,['left'],Fri May 09 2025 15:07:59 GMT-0400 (Eastern Daylight Time),1746817679760,7.899383333333334,2,-OPqTR-8KSH3qMGXKAML,2
1,37,NA,A fenced in area with a grass field and three zebra together near four green poles.,caption_coco,"There is a designated enclosed space that is surrounded by a fence, within which one can observe a grassy field that covers the ground. In this grassy area, there are three zebras that are gathered together. Additionally, there are four green poles positioned within this enclosed field, contributing to the overall setting of the area.",caption_verbose,1746818153723,2,preference.json,English,caption_coco,sampled_images_corrected_format_2/000000489995.jpg,18.187,caption_verbose,right,['right'],Fri May 09 2025 15:07:59 GMT-0400 (Eastern Daylight Time),1746817679760,7.899383333333334,3,-OPqTR-8KSH3qMGXKAML,2
1,37,NA,"Two zebras are standing next to each other in a park, walking on the grass under a shady tree, while also grazing in a field near some trees.",caption_composite,Two zebras are in the grass near some trees.,caption_coco,1746818153723,2,preference.json,English,caption_composite,sampled_images_corrected_format_2/000000053916.jpg,5.528,caption_coco,right,['right'],Fri May 09 2025 15:07:59 GMT-0400 (Eastern Daylight Time),1746817679760,7.899383333333334,4,-OPqTR-8KSH3qMGXKAML,2
1,37,NA,a gladiator movie dvd case on a travel luggage bag,caption_coco,"There is a DVD case that contains a film featuring gladiators, which is prominently placed on top of a piece of travel luggage. This luggage bag is being used for travel purposes and is currently showcasing this specific DVD case that pertains to the movie genre focused on gladiatorial combat.",caption_verbose,1746818153723,2,preference.json,English,caption_verbose,sampled_images_corrected_format_2/000000272097.jpg,8.925,caption_coco,left,['left'],Fri May 09 2025 15:07:59 GMT-0400 (Eastern Daylight Time),1746817679760,7.899383333333334,5,-OPqTR-8KSH3qMGXKAML,2
1,37,NA,"The image features a hot dog placed inside a bun. The bun is light in color and appears soft, partially wrapped in white paper. A sausage is visible within the bun, and a thick line of yellow mustard is applied along the top of the sausage. The hand holding the hot dog is partially visible in the bottom left of the image.",caption_gpt4o,a close up of a person holding a hot dog ,caption_coco,1746818153723,2,preference.json,English,caption_gpt4o,sampled_images_corrected_format_2/000000506873.jpg,7.258,caption_coco,right,['right'],Fri May 09 2025 15:07:59 GMT-0400 (Eastern Daylight Time),1746817679760,7.899383333333334,6,-OPqTR-8KSH3qMGXKAML,2
1,37,NA,"A significant number of birds can be observed perched upon the uppermost branches of a tree, where they seem to find a suitable place to rest or perhaps to survey their surroundings from an elevated position among the foliage.",caption_verbose,Many birds sit in the top branches of a tree. ,caption_coco,1746818153723,2,preference.json,English,caption_verbose,sampled_images_corrected_format_2/000000056134.jpg,5.991,caption_coco,right,['right'],Fri May 09 2025 15:07:59 GMT-0400 (Eastern Daylight Time),1746817679760,7.899383333333334,7,-OPqTR-8KSH3qMGXKAML,2
1,37,NA,a man wearing a gray shirt is playing a video game,caption_coco,"A man is engaged in the activity of playing a video game, and he is dressed in a shirt that is gray in color.",caption_verbose,1746818153723,2,preference.json,English,caption_coco,sampled_images_corrected_format_2/000000274977.jpg,10.298,caption_verbose,right,['right'],Fri May 09 2025 15:07:59 GMT-0400 (Eastern Daylight Time),1746817679760,7.899383333333334,8,-OPqTR-8KSH3qMGXKAML,2
1,37,NA,"A young child, who appears to be quite small in stature, is currently engaging in playtime activities inside a luggage bag that is placed on a smooth wooden floor surface. The child seems to be enjoying this playful moment in the comfortable confines of the bag, while the wooden floor serves as a solid and sturdy base for their imaginative adventures.",caption_verbose,a small child playing in a luggage bag on a wooden floor,caption_coco,1746818153723,2,preference.json,English,caption_verbose,sampled_images_corrected_format_2/000000233143.jpg,10.381,caption_coco,right,['right'],Fri May 09 2025 15:07:59 GMT-0400 (Eastern Daylight Time),1746817679760,7.899383333333334,9,-OPqTR-8KSH3qMGXKAML,2
1,37,NA,"The image shows two bears engaged in physical interaction on a grassy area. One bear is positioned to the left, exhibiting a lighter brown color, while the other bear, located to the right, is darker. They are situated near a rocky outcropping, with tall grass surrounding them. The setting appears to be natural and outdoors.",caption_gpt4o,"In a wide and open area, two young bears can be observed engaging in a playful fight with each other. These bears, full of youthful energy and enthusiasm, are wrestling and tumbling around as they seem to enjoy their time together in this expansive outdoor space. Their playful antics involve a variety of moves, as they interact in a way that is characteristic of their age and species.",caption_verbose,1746818153723,2,preference.json,English,caption_verbose,sampled_images_corrected_format_2/000000377282.jpg,15.517,caption_gpt4o,left,['left'],Fri May 09 2025 15:07:59 GMT-0400 (Eastern Daylight Time),1746817679760,7.899383333333334,10,-OPqTR-8KSH3qMGXKAML,2
1,37,NA,Two zebra standing next to each other on a dirt field.,caption_coco,"In a scene depicting the natural world, there are two zebras positioned closely together, standing side by side, on a field characterized by its dirt surface. The two zebras are neighboring each other, creating a visual representation of their cohabitation in this particular environment, which consists primarily of earth rather than grass or other forms of vegetation.",caption_verbose,1746818153723,2,preference.json,English,caption_verbose,sampled_images_corrected_format_2/000000536716.jpg,12.754,caption_coco,left,['left'],Fri May 09 2025 15:07:59 GMT-0400 (Eastern Daylight Time),1746817679760,7.899383333333334,11,-OPqTR-8KSH3qMGXKAML,2
1,37,NA,"The meal consists of a sausage sandwich served on a bun, accompanied by pickles, and it is complemented by a side dish featuring a bowl of greens, such as spinach. The entire presentation includes the sausage sandwich, pickles, and greens placed on paper, showcasing the combination of flavors and textures in the meal.",caption_composite,"This meal consists of a burger made from sausage, which serves as the primary protein component, and it is accompanied by pickles that add a tangy flavor. Additionally, on the side, there is a serving of greens, which may include a variety of leafy vegetables, providing a fresh and healthy contrast to the rich and savory sausage burger.",caption_verbose,1746818153723,2,preference.json,English,caption_verbose,sampled_images_corrected_format_2/000000159924.jpg,20.862,caption_composite,left,['left'],Fri May 09 2025 15:07:59 GMT-0400 (Eastern Daylight Time),1746817679760,7.899383333333334,12,-OPqTR-8KSH3qMGXKAML,2
1,37,NA,"A brown horse is standing in a fenced area, wearing a striped horse blanket. This horse is positioned in the grass of a field, next to a fence, and is shown within a pen. The blanket covers the horse as it stands still in its designated space.",caption_composite,"In a spacious open area designated as a field, there exists a horse that is currently wearing a blanket featuring a striped pattern. This particular blanket is draped over the horse's body, providing it with an added layer of covering while it remains in the expansive setting of the field.",caption_verbose,1746818153723,2,preference.json,English,caption_verbose,sampled_images_corrected_format_2/000000526035.jpg,20.211,caption_composite,left,['left'],Fri May 09 2025 15:07:59 GMT-0400 (Eastern Daylight Time),1746817679760,7.899383333333334,13,-OPqTR-8KSH3qMGXKAML,2
1,37,NA,"A young man wearing glasses is brushing his teeth, with a toothbrush in his mouth, while someone takes his picture.",caption_composite,"The image shows a young male individual with glasses brushing his teeth with a blue toothbrush. He is positioned in front of a mirror, and the background features white tiled walls with a small decorative element visible. The person's face is partially obscured by the toothbrush, and he is wearing a black shirt. The lighting suggests it is a bathroom setting.",caption_gpt4o,1746818153723,2,preference.json,English,caption_composite,sampled_images_corrected_format_2/000000104543.jpg,17.301,caption_gpt4o,right,['right'],Fri May 09 2025 15:07:59 GMT-0400 (Eastern Daylight Time),1746817679760,7.899383333333334,14,-OPqTR-8KSH3qMGXKAML,2
1,37,NA,"The image shows a cat lying on a wooden bench. The bench is made of slats, and there are green plants and grass visible in the background. The cat has a mix of gray, brown, and white fur and appears to be resting with its eyes partially closed. The setting is outdoors, with natural light illuminating the scene.",caption_gpt4o,A cat laying on top of a wooden bench in a park.,caption_coco,1746818153723,2,preference.json,English,caption_gpt4o,sampled_images_corrected_format_2/000000337435.jpg,7.397,caption_coco,right,['right'],Fri May 09 2025 15:07:59 GMT-0400 (Eastern Daylight Time),1746817679760,7.899383333333334,15,-OPqTR-8KSH3qMGXKAML,2
1,37,NA,"A surfer skillfully rides the crest of a wave, skillfully maneuvering their board to catch the powerful force of the ocean. As they glide along the surface, the surfer initiates a spinning motion, pivoting their body and the board around in a circular fashion, showcasing their agility and control within the dynamic and ever-changing environment of the sea.",caption_verbose,"The image shows a surfer riding a wave. The surfer is positioned on a surfboard, leaning back and turning towards the wave. The water is green with white foam at the crest of the wave. The background consists of more ocean and a muted sky. The surfer is wearing a wetsuit with visible branding and has a helmet on.",caption_gpt4o,1746818153723,2,preference.json,English,caption_gpt4o,sampled_images_corrected_format_2/000000537300.jpg,21.818,caption_verbose,left,"['right', 'left']",Fri May 09 2025 15:07:59 GMT-0400 (Eastern Daylight Time),1746817679760,7.899383333333334,16,-OPqTR-8KSH3qMGXKAML,2
1,37,NA,"The image shows two kites caught in a tree. One kite is predominantly red with some additional colors, while the other is blue with wave patterns and a cartoon face. The kites are positioned among bare branches, and there are leaves present on some branches. The background appears cloudy, suggesting overcast weather.",caption_gpt4o,Two colorful kites are caught up in the trees. ,caption_coco,1746818153723,2,preference.json,English,caption_coco,sampled_images_corrected_format_2/000000561714.jpg,14.897,caption_gpt4o,left,"['right', 'left']",Fri May 09 2025 15:07:59 GMT-0400 (Eastern Daylight Time),1746817679760,7.899383333333334,17,-OPqTR-8KSH3qMGXKAML,2
1,37,NA,a black bear walks across a big field,caption_coco,"A large black bear is seen moving steadily across an expansive field that stretches out before it. The bear, characterized by its dark fur, makes its way across the open space, navigating the area as it wanders from one side of the field to the other.",caption_verbose,1746818153723,2,preference.json,English,caption_verbose,sampled_images_corrected_format_2/000000289354.jpg,10.545,caption_coco,left,['left'],Fri May 09 2025 15:07:59 GMT-0400 (Eastern Daylight Time),1746817679760,7.899383333333334,18,-OPqTR-8KSH3qMGXKAML,2
1,37,NA,"The image shows a close-up of a dog's face, primarily focusing on its mouth. The dog appears to be holding a piece of bread in its mouth. A human hand is visible, gently holding another piece of bread toward the dog. The background is blurred, making it difficult to determine the setting. The dog's fur is predominantly white with black markings.",caption_gpt4o,Dog eating a sandwich that is being held by a person.,caption_coco,1746818153723,2,preference.json,English,caption_gpt4o,sampled_images_corrected_format_2/000000397161.jpg,8.251,caption_coco,right,['right'],Fri May 09 2025 15:07:59 GMT-0400 (Eastern Daylight Time),1746817679760,7.899383333333334,19,-OPqTR-8KSH3qMGXKAML,2
1,37,NA,"A brown bear, accompanied by her two young cubs, is walking across a shallow river. The trio of bears is wading through the water, with the mother bear leading the way as they navigate the river's flow.",caption_composite,"The image shows a brown bear walking through shallow water, accompanied by two smaller bear cubs. The background features green foliage, with trees partially visible. There are rocks in the water, and the bear and cubs appear to be creating ripples as they move. The overall setting is a natural environment, likely along a river or stream.",caption_gpt4o,1746818153723,2,preference.json,English,caption_composite,sampled_images_corrected_format_2/000000434602.jpg,14.091,caption_gpt4o,right,"['left', 'right']",Fri May 09 2025 15:07:59 GMT-0400 (Eastern Daylight Time),1746817679760,7.899383333333334,20,-OPqTR-8KSH3qMGXKAML,2
1,37,NA,"On a plate, there is a selection of various items that include several pieces of bread, as well as an assortment of fruits and vegetables. This arrangement presents a combination of different food types, showcasing both the carbohydrate-rich bread and the fresh produce in the form of fruits and vegetables, all placed neatly on the surface of the plate.",caption_verbose,"The yellow plate features an assortment of food items, including slices of bread, an omelet, and a variety of fruits and vegetables such as oranges, apples, and tomatoes. This combination of healthy options presents a balanced meal on the plate.",caption_composite,1746818153723,2,preference.json,English,caption_verbose,sampled_images_corrected_format_2/000000021397.jpg,17.04,caption_composite,right,['right'],Fri May 09 2025 15:07:59 GMT-0400 (Eastern Daylight Time),1746817679760,7.899383333333334,21,-OPqTR-8KSH3qMGXKAML,2
1,37,NA,"A large group of cattle, consisting of numerous individuals, can be observed standing together in a vibrant and lush green field that is flourishing with healthy grass. The field provides a rich and verdant landscape that enhances the appearance of the cattle, who are positioned across the area in a manner that suggests they are comfortably grazing or simply resting in this picturesque environment.",caption_verbose,A herd of cattle standing on a  lush green field.,caption_coco,1746818153723,2,preference.json,English,caption_verbose,sampled_images_corrected_format_2/000000344897.jpg,9.383,caption_coco,right,['right'],Fri May 09 2025 15:07:59 GMT-0400 (Eastern Daylight Time),1746817679760,7.899383333333334,22,-OPqTR-8KSH3qMGXKAML,2
1,37,NA,"A lone giraffe walks across a lush green field, moving gracefully down the middle of a forest area. It is seen from a distance through trees, as it stands near a grove of tall trees, blending with the surrounding foliage while traversing the grass.",caption_composite,"A giraffe can be observed from afar, its tall and distinctive figure partially obscured by the surrounding trees that populate the landscape. The sighting occurs at a considerable distance, where the unique silhouette of the giraffe stands out against the backdrop of the vegetation, providing a glimpse into the natural habitat in which this remarkable animal resides.",caption_verbose,1746818153723,2,preference.json,English,caption_composite,sampled_images_corrected_format_2/000000345826.jpg,14.244,caption_verbose,right,['right'],Fri May 09 2025 15:07:59 GMT-0400 (Eastern Daylight Time),1746817679760,7.899383333333334,23,-OPqTR-8KSH3qMGXKAML,2
1,37,NA,"A small bird is perched on a bare branch of a tree, surrounded by dense brushy areas and dry grass. It stands atop the thorny limb, observing its surroundings from this elevated position.",caption_composite,Small bird standing on branch in dense brushy area.,caption_coco,1746818153723,2,preference.json,English,caption_coco,sampled_images_corrected_format_2/000000134605.jpg,10.771,caption_composite,left,['left'],Fri May 09 2025 15:07:59 GMT-0400 (Eastern Daylight Time),1746817679760,7.899383333333334,24,-OPqTR-8KSH3qMGXKAML,2
1,37,NA,"A man is performing a one-handed push-up while simultaneously eating, balancing himself on one arm as he holds his body up. He is positioned on a mat, and during this exercise, he takes a bite of some food, demonstrating his ability to combine physical activity with eating.",caption_composite,A man takes a bite of some food in the middle of a push up. ,caption_coco,1746818153723,2,preference.json,English,caption_coco,sampled_images_corrected_format_2/000000438186.jpg,9.48,caption_composite,left,['left'],Fri May 09 2025 15:07:59 GMT-0400 (Eastern Daylight Time),1746817679760,7.899383333333334,25,-OPqTR-8KSH3qMGXKAML,2
1,37,NA,"A man wearing a colorful outfit is skiing down a steep slope on a sunny day. He is crouched low, bending while holding skiing poles, as he slides down the hill in motion.",caption_composite,"The image shows a skier in motion on a snowy slope. The skier is wearing a blue and green outfit with a helmet and goggles, and the skis are black. There are two poles held in the skier's hands, matching the outfit's colors. The ski slope features blue markings on the surface. A netting structure is visible in the background.",caption_gpt4o,1746818153723,2,preference.json,English,caption_gpt4o,sampled_images_corrected_format_2/000000469913.jpg,23.382,caption_composite,left,['left'],Fri May 09 2025 15:07:59 GMT-0400 (Eastern Daylight Time),1746817679760,7.899383333333334,26,-OPqTR-8KSH3qMGXKAML,2
1,37,NA,A man wearing a baseball hat tossing a frisbee.,caption_coco,"A man is engaged in the activity of throwing a frisbee, and he is notably adorned with a baseball hat, which is positioned upon his head. The action of tossing the frisbee appears to be energetic, and his choice of headwear suggests a casual or sporty atmosphere in which this event is taking place.",caption_verbose,1746818153723,2,preference.json,English,caption_verbose,sampled_images_corrected_format_2/000000403349.jpg,6.601,caption_coco,left,['left'],Fri May 09 2025 15:07:59 GMT-0400 (Eastern Daylight Time),1746817679760,7.899383333333334,27,-OPqTR-8KSH3qMGXKAML,2
1,37,NA,"A young boy is playing in the yard, engaging in the activity of throwing a Frisbee into the open space around him on a bright and sunny day. The weather is clear, providing a perfect outdoor environment for him to enjoy this recreational pastime.",caption_verbose,A boy in the yard throwing a Frisbee on a sunny day.,caption_coco,1746818153723,2,preference.json,English,caption_verbose,sampled_images_corrected_format_2/000000517468.jpg,7.828,caption_coco,right,['right'],Fri May 09 2025 15:07:59 GMT-0400 (Eastern Daylight Time),1746817679760,7.899383333333334,28,-OPqTR-8KSH3qMGXKAML,2
1,37,NA,"A zebra is currently situated within its natural habitat, which is characterized by a landscape that typically includes grasslands, savannas, or similar environments conducive to their lifestyle. In this particular instance, the zebra is moving towards its left, indicating a specific direction of travel as it navigates through its surroundings.",caption_verbose,Zebra in its natural habitat going to his left.,caption_coco,1746818153723,2,preference.json,English,caption_verbose,sampled_images_corrected_format_2/000000251502.jpg,11.914,caption_coco,right,['right'],Fri May 09 2025 15:07:59 GMT-0400 (Eastern Daylight Time),1746817679760,7.899383333333334,29,-OPqTR-8KSH3qMGXKAML,2
1,37,NA,"The image shows a black and gray dog sitting on a carpeted floor. The dog has a collar and is looking upward, possibly towards a person. Part of a person's arm is visible, and they appear to be interacting with the dog. In the background, there is a shelf filled with DVDs. The setting has light-colored walls and a patterned wallpaper.",caption_gpt4o,"In a library setting, there is a canine companion of a deep black hue, commonly referred to as a black dog, that is present alongside its human owner. The two of them are located within the confines of the library, surrounded by books and the serene atmosphere that typically characterizes such a space dedicated to reading and learning.",caption_verbose,1746818153723,2,preference.json,English,caption_verbose,sampled_images_corrected_format_2/000000074001.jpg,12.385,caption_gpt4o,left,['left'],Fri May 09 2025 15:07:59 GMT-0400 (Eastern Daylight Time),1746817679760,7.899383333333334,30,-OPqTR-8KSH3qMGXKAML,2
1,37,Great research keep up!,"The image shows a grassy field with several cows. There are two brown and white cows prominently standing in the foreground, and a few black and white cows nearby, some standing and others lying down. In the background, additional cows can be seen, and there are trees and shrubs surrounding the area. The grass appears lush and green, indicating a well-maintained pasture.",caption_gpt4o,"A large group of cattle, consisting of numerous individuals, can be observed standing together in a vibrant and lush green field that is flourishing with healthy grass. The field provides a rich and verdant landscape that enhances the appearance of the cattle, who are positioned across the area in a manner that suggests they are comfortably grazing or simply resting in this picturesque environment.",caption_verbose,1746818233152,2,preference.json,English,caption_gpt4o,sampled_images_corrected_format_2/000000344897.jpg,70.661,caption_verbose,right,['right'],Fri May 09 2025 14:08:19 GMT-0500 (Central Daylight Time),1746817699930,8.887033333333333,1,-OPqTjqjsYVdhbSSUcty,3
1,37,Great research keep up!,"A large adult bear, accompanied by two of its young cubs, is making its way through a flowing river. The bear, being the mother or protector, is leading the two small cubs as they carefully wade through the water together, navigating the currents and aquatic surroundings.",caption_verbose,"The image shows a brown bear walking through shallow water, accompanied by two smaller bear cubs. The background features green foliage, with trees partially visible. There are rocks in the water, and the bear and cubs appear to be creating ripples as they move. The overall setting is a natural environment, likely along a river or stream.",caption_gpt4o,1746818233152,2,preference.json,English,caption_gpt4o,sampled_images_corrected_format_2/000000434602.jpg,10.95,caption_verbose,left,['left'],Fri May 09 2025 14:08:19 GMT-0500 (Central Daylight Time),1746817699930,8.887033333333333,2,-OPqTjqjsYVdhbSSUcty,3
1,37,Great research keep up!,"A man is engaged in the activity of playing a video game, and he is dressed in a shirt that is gray in color.",caption_verbose,An older man wearing a gray shirt is holding a Wii remote and smiling while playing a video game.,caption_composite,1746818233152,2,preference.json,English,caption_verbose,sampled_images_corrected_format_2/000000274977.jpg,21.622,caption_composite,right,['right'],Fri May 09 2025 14:08:19 GMT-0500 (Central Daylight Time),1746817699930,8.887033333333333,3,-OPqTjqjsYVdhbSSUcty,3
1,37,Great research keep up!,"The image shows a plate with a sandwich and a side of collard greens. The sandwich consists of sliced sausage placed on a white bread bun, topped with pickle slices. Next to the sandwich, there is a small bowl of dark green collard greens. The items are presented on a paper with a printed logo.",caption_gpt4o,"The meal consists of a sausage sandwich served on a bun, accompanied by pickles, and it is complemented by a side dish featuring a bowl of greens, such as spinach. The entire presentation includes the sausage sandwich, pickles, and greens placed on paper, showcasing the combination of flavors and textures in the meal.",caption_composite,1746818233152,2,preference.json,English,caption_composite,sampled_images_corrected_format_2/000000159924.jpg,25.726,caption_gpt4o,left,['left'],Fri May 09 2025 14:08:19 GMT-0500 (Central Daylight Time),1746817699930,8.887033333333333,4,-OPqTjqjsYVdhbSSUcty,3
1,37,Great research keep up!,a small child playing in a luggage bag on a wooden floor,caption_coco,"A little girl sits in an open suitcase by a bookshelf, playing inside the luggage bag on a wooden floor. The scene features the small child engaging with her surroundings as she enjoys the unique space created by the suitcase next to a bookcase.",caption_composite,1746818233152,2,preference.json,English,caption_coco,sampled_images_corrected_format_2/000000233143.jpg,16.413,caption_composite,right,['right'],Fri May 09 2025 14:08:19 GMT-0500 (Central Daylight Time),1746817699930,8.887033333333333,5,-OPqTjqjsYVdhbSSUcty,3
1,37,Great research keep up!,A fenced in area with a grass field and three zebra together near four green poles.,caption_coco,"There is a designated enclosed space that is surrounded by a fence, within which one can observe a grassy field that covers the ground. In this grassy area, there are three zebras that are gathered together. Additionally, there are four green poles positioned within this enclosed field, contributing to the overall setting of the area.",caption_verbose,1746818233152,2,preference.json,English,caption_verbose,sampled_images_corrected_format_2/000000489995.jpg,16.039,caption_coco,left,['left'],Fri May 09 2025 14:08:19 GMT-0500 (Central Daylight Time),1746817699930,8.887033333333333,6,-OPqTjqjsYVdhbSSUcty,3
1,37,Great research keep up!,A young man brushing his teeth while wearing glasses.,caption_coco,"A young man is engaged in the act of brushing his teeth, performing this daily hygiene routine while also wearing a pair of glasses that rest upon his nose.",caption_verbose,1746818233152,2,preference.json,English,caption_verbose,sampled_images_corrected_format_2/000000104543.jpg,9.086,caption_coco,left,['left'],Fri May 09 2025 14:08:19 GMT-0500 (Central Daylight Time),1746817699930,8.887033333333333,7,-OPqTjqjsYVdhbSSUcty,3
1,37,Great research keep up!,"The image shows a black suitcase with a textured surface. It is positioned on a pink carpet. Resting on top of the suitcase is a DVD case for the film ""Gladiator."" The DVD case is slightly angled, displaying the cover art prominently. There are no other objects or features visible in the image.",caption_gpt4o,"A suitcase is positioned on its side, with a DVD titled ""Gladiator"" resting atop it. Next to the suitcase, a travel luggage bag includes the Gladiator movie DVD case prominently displayed. Additionally, a computer case features the same Gladiator DVD placed on top of it.",caption_composite,1746818233152,2,preference.json,English,caption_composite,sampled_images_corrected_format_2/000000272097.jpg,22.671,caption_gpt4o,left,['left'],Fri May 09 2025 14:08:19 GMT-0500 (Central Daylight Time),1746817699930,8.887033333333333,8,-OPqTjqjsYVdhbSSUcty,3
1,37,Great research keep up!,"Two zebras stand next to each other on a dirt field, while a couple of other zebras explore in the sand next to some chopped wood. In a zoo setting, zebras wander around their pen, with two of them walking around as well. Among the group, baby zebras are also present, moving around to explore their environment.",caption_composite,"In a scene depicting the natural world, there are two zebras positioned closely together, standing side by side, on a field characterized by its dirt surface. The two zebras are neighboring each other, creating a visual representation of their cohabitation in this particular environment, which consists primarily of earth rather than grass or other forms of vegetation.",caption_verbose,1746818233152,2,preference.json,English,caption_verbose,sampled_images_corrected_format_2/000000536716.jpg,8.934,caption_composite,left,['left'],Fri May 09 2025 14:08:19 GMT-0500 (Central Daylight Time),1746817699930,8.887033333333333,9,-OPqTjqjsYVdhbSSUcty,3
1,37,Great research keep up!,A man wearing a baseball hat tossing a frisbee.,caption_coco,"A man wearing a baseball hat and a jacket is standing in a sandy area, poised to throw a frisbee. He is near a road, preparing for the toss while maintaining a casual stance.",caption_composite,1746818233152,2,preference.json,English,caption_coco,sampled_images_corrected_format_2/000000403349.jpg,19.942,caption_composite,right,"['left', 'right']",Fri May 09 2025 14:08:19 GMT-0500 (Central Daylight Time),1746817699930,8.887033333333333,10,-OPqTjqjsYVdhbSSUcty,3
1,37,Great research keep up!,"The image features a close-up view of an individual who is gripping a hot dog. This detail-oriented perspective allows for a clear focus on the person's hand as they hold the food item, providing insight into the scene where the hot dog is being prepared to be eaten or enjoyed.",caption_verbose,a close up of a person holding a hot dog ,caption_coco,1746818233152,2,preference.json,English,caption_coco,sampled_images_corrected_format_2/000000506873.jpg,11.958,caption_verbose,left,['left'],Fri May 09 2025 14:08:19 GMT-0500 (Central Daylight Time),1746817699930,8.887033333333333,11,-OPqTjqjsYVdhbSSUcty,3
1,37,Great research keep up!,The image depicts a zebra walking through a grassy area. The zebra has distinctive black and white stripes and is situated in a landscape that includes tall grass and some shrubs. The background shows blurred green vegetation and a clear sky. The ground appears dry and reddish-brown in color. The zebra's posture is upright as it moves along the terrain.,caption_gpt4o,"A lone zebra with gold coloring is situated in an open field of grass, his natural habitat. The zebra is walking and looking around as he moves to his left, exploring the grassy area that surrounds him.",caption_composite,1746818233152,2,preference.json,English,caption_composite,sampled_images_corrected_format_2/000000251502.jpg,28.152,caption_gpt4o,left,['left'],Fri May 09 2025 14:08:19 GMT-0500 (Central Daylight Time),1746817699930,8.887033333333333,12,-OPqTjqjsYVdhbSSUcty,3
1,37,Great research keep up!,"A tree filled with many birds under a blue sky features a group of large red birds, as well as several parakeets, perched in the top branches. These birds are sitting together, creating a lively scene among the treetops.",caption_composite,"The image shows a tree, likely a eucalyptus, with numerous birds perched on its branches. The birds appear to be predominantly pink with some black, indicating they could be a species of cockatoo or similar. The background is a clear blue sky, and the tree has green leaves. Some birds are in motion, while others are stationary among the branches.",caption_gpt4o,1746818233152,2,preference.json,English,caption_gpt4o,sampled_images_corrected_format_2/000000056134.jpg,12.415,caption_composite,left,['left'],Fri May 09 2025 14:08:19 GMT-0500 (Central Daylight Time),1746817699930,8.887033333333333,13,-OPqTjqjsYVdhbSSUcty,3
1,37,Great research keep up!,"In a library setting, there is a canine companion of a deep black hue, commonly referred to as a black dog, that is present alongside its human owner. The two of them are located within the confines of the library, surrounded by books and the serene atmosphere that typically characterizes such a space dedicated to reading and learning.",caption_verbose,"The image shows a black and gray dog sitting on a carpeted floor. The dog has a collar and is looking upward, possibly towards a person. Part of a person's arm is visible, and they appear to be interacting with the dog. In the background, there is a shelf filled with DVDs. The setting has light-colored walls and a patterned wallpaper.",caption_gpt4o,1746818233152,2,preference.json,English,caption_gpt4o,sampled_images_corrected_format_2/000000074001.jpg,9.959,caption_verbose,left,['left'],Fri May 09 2025 14:08:19 GMT-0500 (Central Daylight Time),1746817699930,8.887033333333333,14,-OPqTjqjsYVdhbSSUcty,3
1,37,Great research keep up!,"In a sunny field, two brown bear cubs are play fighting and tussling together in the grass. They are seen wrestling near some rocks, rolling around and enjoying their time in the open. Their playful interactions showcase their youthful energy and curiosity as they engage in various playful antics.",caption_composite,two young bears are play fighting in the open,caption_coco,1746818233152,2,preference.json,English,caption_composite,sampled_images_corrected_format_2/000000377282.jpg,14.454,caption_coco,right,['right'],Fri May 09 2025 14:08:19 GMT-0500 (Central Daylight Time),1746817699930,8.887033333333333,15,-OPqTjqjsYVdhbSSUcty,3
1,37,Great research keep up!,"A row of very cute black and white cows is lined up side by side, with baby cows standing next to them. This bunch of cattle is standing together, creating a pleasant scene of cows and their young.",caption_composite,"A considerable number of cows that are predominantly black and white in color are positioned in a straight line, creating a visual arrangement where they stand next to one another in an orderly fashion.",caption_verbose,1746818233152,2,preference.json,English,caption_composite,sampled_images_corrected_format_2/000000032909.jpg,13.991,caption_verbose,right,['right'],Fri May 09 2025 14:08:19 GMT-0500 (Central Daylight Time),1746817699930,8.887033333333333,16,-OPqTjqjsYVdhbSSUcty,3
1,37,Great research keep up!,"The image features a golden retriever lying on green grass. The dog is positioned to the right side of the frame, facing forward, with its tongue out. In front of the dog is a yellow frisbee. The background includes some trees with green foliage, and the area is well-lit, suggesting it is daytime. There is also a wooden fence visible in the distance.",caption_gpt4o,"A golden-colored dog is comfortably positioned on the grass in the yard, with its mouth wide open, suggesting a relaxed state.",caption_verbose,1746818233152,2,preference.json,English,caption_gpt4o,sampled_images_corrected_format_2/000000293130.jpg,11.588,caption_verbose,right,['right'],Fri May 09 2025 14:08:19 GMT-0500 (Central Daylight Time),1746817699930,8.887033333333333,17,-OPqTjqjsYVdhbSSUcty,3
1,37,Great research keep up!,"Two zebras are standing next to each other in a park, walking on the grass under a shady tree, while also grazing in a field near some trees.",caption_composite,"In a specific area characterized by the presence of lush green grass, there are two zebras that can be observed. They are situated in close proximity to a collection of trees, which adds a natural backdrop to the scene.",caption_verbose,1746818233152,2,preference.json,English,caption_verbose,sampled_images_corrected_format_2/000000053916.jpg,11.447,caption_composite,left,['left'],Fri May 09 2025 14:08:19 GMT-0500 (Central Daylight Time),1746817699930,8.887033333333333,18,-OPqTjqjsYVdhbSSUcty,3
1,37,Great research keep up!,"A giraffe can be observed from afar, its tall and distinctive figure partially obscured by the surrounding trees that populate the landscape. The sighting occurs at a considerable distance, where the unique silhouette of the giraffe stands out against the backdrop of the vegetation, providing a glimpse into the natural habitat in which this remarkable animal resides.",caption_verbose,"A lone giraffe walks across a lush green field, moving gracefully down the middle of a forest area. It is seen from a distance through trees, as it stands near a grove of tall trees, blending with the surrounding foliage while traversing the grass.",caption_composite,1746818233152,2,preference.json,English,caption_verbose,sampled_images_corrected_format_2/000000345826.jpg,10.646,caption_composite,right,['right'],Fri May 09 2025 14:08:19 GMT-0500 (Central Daylight Time),1746817699930,8.887033333333333,19,-OPqTjqjsYVdhbSSUcty,3
1,37,Great research keep up!,A cat laying on top of a wooden bench in a park.,caption_coco,"A small grey striped cat is sleeping on a wooden bench in a park, laying comfortably and enjoying the outdoor environment. The bench is situated outside, providing a serene setting for the cat’s rest, and a close-up view reveals the cat’s relaxed posture as it peacefully dozes off.",caption_composite,1746818233152,2,preference.json,English,caption_composite,sampled_images_corrected_format_2/000000337435.jpg,7.986,caption_coco,left,['left'],Fri May 09 2025 14:08:19 GMT-0500 (Central Daylight Time),1746817699930,8.887033333333333,20,-OPqTjqjsYVdhbSSUcty,3
1,37,Great research keep up!,"A young man is surfing in the ocean waves, skillfully catching a wave and spinning around with agility. This lad rides the wave like a surfboard champion, demonstrating his prowess as he navigates the water. Overall, the scene depicts a man surfing a wave in the ocean, embodying the dynamics of the sport.",caption_composite,"The image shows a surfer riding a wave. The surfer is positioned on a surfboard, leaning back and turning towards the wave. The water is green with white foam at the crest of the wave. The background consists of more ocean and a muted sky. The surfer is wearing a wetsuit with visible branding and has a helmet on.",caption_gpt4o,1746818233152,2,preference.json,English,caption_gpt4o,sampled_images_corrected_format_2/000000537300.jpg,11.19,caption_composite,left,['left'],Fri May 09 2025 14:08:19 GMT-0500 (Central Daylight Time),1746817699930,8.887033333333333,21,-OPqTjqjsYVdhbSSUcty,3
1,37,Great research keep up!,"A man is performing a one-handed push-up while simultaneously eating, balancing himself on one arm as he holds his body up. He is positioned on a mat, and during this exercise, he takes a bite of some food, demonstrating his ability to combine physical activity with eating.",caption_composite,A man takes a bite of some food in the middle of a push up. ,caption_coco,1746818233152,2,preference.json,English,caption_composite,sampled_images_corrected_format_2/000000438186.jpg,8.55,caption_coco,right,['right'],Fri May 09 2025 14:08:19 GMT-0500 (Central Daylight Time),1746817699930,8.887033333333333,22,-OPqTjqjsYVdhbSSUcty,3
1,37,Great research keep up!,Two colorful kites are caught up in the trees. ,caption_coco,"In a row of bare trees, two colorful kites are caught, with a couple of them stuck in the leaf-free branches of a somewhat bare tree.",caption_composite,1746818233152,2,preference.json,English,caption_composite,sampled_images_corrected_format_2/000000561714.jpg,10.25,caption_coco,left,['left'],Fri May 09 2025 14:08:19 GMT-0500 (Central Daylight Time),1746817699930,8.887033333333333,23,-OPqTjqjsYVdhbSSUcty,3
1,37,Great research keep up!,"The image depicts a black bear standing on a rocky terrain. The bear has a thick fur coat and is facing slightly toward the right. The background consists of various rocks, some covered in moss or barnacles, and there is sparse grass in the area. The setting appears to be natural and rugged, with mixed textures from the rocks and the bear's fur.",caption_gpt4o,a black bear walks across a big field,caption_coco,1746818233152,2,preference.json,English,caption_gpt4o,sampled_images_corrected_format_2/000000289354.jpg,8.03,caption_coco,right,['right'],Fri May 09 2025 14:08:19 GMT-0500 (Central Daylight Time),1746817699930,8.887033333333333,24,-OPqTjqjsYVdhbSSUcty,3
1,37,Great research keep up!,"A diminutive avian creature is perched upon a slender limb, situated in a densely vegetated and brush-filled environment. The surroundings consist of an intricate network of shrubs and plants, providing a rich backdrop for this small bird as it maintains its position on the branch.",caption_verbose,"A small bird is perched on a bare branch of a tree, surrounded by dense brushy areas and dry grass. It stands atop the thorny limb, observing its surroundings from this elevated position.",caption_composite,1746818233152,2,preference.json,English,caption_verbose,sampled_images_corrected_format_2/000000134605.jpg,6.319,caption_composite,right,['right'],Fri May 09 2025 14:08:19 GMT-0500 (Central Daylight Time),1746817699930,8.887033333333333,25,-OPqTjqjsYVdhbSSUcty,3
1,37,Great research keep up!,A horse in a field has a striped blanket on it.,caption_coco,"A brown horse is standing in a fenced area, wearing a striped horse blanket. This horse is positioned in the grass of a field, next to a fence, and is shown within a pen. The blanket covers the horse as it stands still in its designated space.",caption_composite,1746818233152,2,preference.json,English,caption_composite,sampled_images_corrected_format_2/000000526035.jpg,7.71,caption_coco,left,['left'],Fri May 09 2025 14:08:19 GMT-0500 (Central Daylight Time),1746817699930,8.887033333333333,26,-OPqTjqjsYVdhbSSUcty,3
1,37,Great research keep up!,Dog eating a sandwich that is being held by a person.,caption_coco,"The image shows a close-up of a dog's face, primarily focusing on its mouth. The dog appears to be holding a piece of bread in its mouth. A human hand is visible, gently holding another piece of bread toward the dog. The background is blurred, making it difficult to determine the setting. The dog's fur is predominantly white with black markings.",caption_gpt4o,1746818233152,2,preference.json,English,caption_gpt4o,sampled_images_corrected_format_2/000000397161.jpg,8.869,caption_coco,left,['left'],Fri May 09 2025 14:08:19 GMT-0500 (Central Daylight Time),1746817699930,8.887033333333333,27,-OPqTjqjsYVdhbSSUcty,3
1,37,Great research keep up!,"The image shows a young boy wearing a red t-shirt and black pants. He is in a grassy area, with a fence visible in the background. The boy appears to be in the motion of throwing something. In the background, there are stacked logs and some trees. The ground is green and well-maintained, and the lighting suggests it is a bright day.",caption_gpt4o,A boy in the yard throwing a Frisbee on a sunny day.,caption_coco,1746818233152,2,preference.json,English,caption_gpt4o,sampled_images_corrected_format_2/000000517468.jpg,7.998,caption_coco,right,['right'],Fri May 09 2025 14:08:19 GMT-0500 (Central Daylight Time),1746817699930,8.887033333333333,28,-OPqTjqjsYVdhbSSUcty,3
1,37,Great research keep up!,"The image shows a skier in motion on a snowy slope. The skier is wearing a blue and green outfit with a helmet and goggles, and the skis are black. There are two poles held in the skier's hands, matching the outfit's colors. The ski slope features blue markings on the surface. A netting structure is visible in the background.",caption_gpt4o,a man holding skiing poles bending as he ski,caption_coco,1746818233152,2,preference.json,English,caption_gpt4o,sampled_images_corrected_format_2/000000469913.jpg,6.519,caption_coco,right,['right'],Fri May 09 2025 14:08:19 GMT-0500 (Central Daylight Time),1746817699930,8.887033333333333,29,-OPqTjqjsYVdhbSSUcty,3
1,37,Great research keep up!,"The yellow plate features an assortment of food items, including slices of bread, an omelet, and a variety of fruits and vegetables such as oranges, apples, and tomatoes. This combination of healthy options presents a balanced meal on the plate.",caption_composite,"On a plate, there is a selection of various items that include several pieces of bread, as well as an assortment of fruits and vegetables. This arrangement presents a combination of different food types, showcasing both the carbohydrate-rich bread and the fresh produce in the form of fruits and vegetables, all placed neatly on the surface of the plate.",caption_verbose,1746818233152,2,preference.json,English,caption_verbose,sampled_images_corrected_format_2/000000021397.jpg,8.247,caption_composite,left,['left'],Fri May 09 2025 14:08:19 GMT-0500 (Central Daylight Time),1746817699930,8.887033333333333,30,-OPqTjqjsYVdhbSSUcty,3
1,32,,"The image shows a grassy field with several cows. There are two brown and white cows prominently standing in the foreground, and a few black and white cows nearby, some standing and others lying down. In the background, additional cows can be seen, and there are trees and shrubs surrounding the area. The grass appears lush and green, indicating a well-maintained pasture.",caption_gpt4o,A herd of cattle standing on a  lush green field.,caption_coco,1746818344442,2,preference.json,english,caption_coco,sampled_images_corrected_format_2/000000344897.jpg,15.35,caption_gpt4o,left,['left'],Fri May 09 2025 15:10:16 GMT-0400 (Eastern Daylight Time),1746817816415,8.80045,1,-OPqUA1y9HF7iz38hfyT,4
1,32,,"The image shows a child sitting inside a black bag or suitcase placed on a flat surface. The child has short hair and is wearing a white shirt. The background includes a bookshelf filled with various books, a blue basket, and multiple objects such as fans and boxes. There is also a piece of cardboard on the floor near the bag. The lighting in the room is bright.",caption_gpt4o,a small child playing in a luggage bag on a wooden floor,caption_coco,1746818344442,2,preference.json,english,caption_coco,sampled_images_corrected_format_2/000000233143.jpg,18.054,caption_gpt4o,left,['left'],Fri May 09 2025 15:10:16 GMT-0400 (Eastern Daylight Time),1746817816415,8.80045,2,-OPqUA1y9HF7iz38hfyT,4
1,32,,A bear and two cubs wading through a river. ,caption_coco,"The image shows a brown bear walking through shallow water, accompanied by two smaller bear cubs. The background features green foliage, with trees partially visible. There are rocks in the water, and the bear and cubs appear to be creating ripples as they move. The overall setting is a natural environment, likely along a river or stream.",caption_gpt4o,1746818344442,2,preference.json,english,caption_coco,sampled_images_corrected_format_2/000000434602.jpg,11.735,caption_gpt4o,right,['right'],Fri May 09 2025 15:10:16 GMT-0400 (Eastern Daylight Time),1746817816415,8.80045,3,-OPqUA1y9HF7iz38hfyT,4
1,32,,"A close-up image features a hot dog in a bun, wrapped in white paper and prominently smeared with an abundance of yellow mustard. The hot dog is held by a person, showcasing the vivid contrast between the glistening mustard and the bun.",caption_composite,"The image features a hot dog placed inside a bun. The bun is light in color and appears soft, partially wrapped in white paper. A sausage is visible within the bun, and a thick line of yellow mustard is applied along the top of the sausage. The hand holding the hot dog is partially visible in the bottom left of the image.",caption_gpt4o,1746818344442,2,preference.json,english,caption_gpt4o,sampled_images_corrected_format_2/000000506873.jpg,18.743,caption_composite,left,['left'],Fri May 09 2025 15:10:16 GMT-0400 (Eastern Daylight Time),1746817816415,8.80045,4,-OPqUA1y9HF7iz38hfyT,4
1,32,,"The image features a golden retriever lying on green grass. The dog is positioned to the right side of the frame, facing forward, with its tongue out. In front of the dog is a yellow frisbee. The background includes some trees with green foliage, and the area is well-lit, suggesting it is daytime. There is also a wooden fence visible in the distance.",caption_gpt4o,"A golden-colored dog is comfortably positioned on the grass in the yard, with its mouth wide open, suggesting a relaxed state.",caption_verbose,1746818344442,2,preference.json,english,caption_verbose,sampled_images_corrected_format_2/000000293130.jpg,15.527,caption_gpt4o,left,['left'],Fri May 09 2025 15:10:16 GMT-0400 (Eastern Daylight Time),1746817816415,8.80045,5,-OPqUA1y9HF7iz38hfyT,4
1,32,,"A dog is in the process of enjoying a sandwich, which is being held by an individual. The person is gripping the sandwich with their hand, while the dog is positioned in a way that allows it to take bites or nibbles from the food item that is being offered to it.",caption_verbose,A black and white dog is being fed part of a sandwich by a person. The dog eagerly eats a piece of bread from the owner's hand as they feed it the remainder of the sandwich. The scene depicts the dog enjoying the sandwich while being held by the person.,caption_composite,1746818344442,2,preference.json,english,caption_composite,sampled_images_corrected_format_2/000000397161.jpg,15.743,caption_verbose,left,['left'],Fri May 09 2025 15:10:16 GMT-0400 (Eastern Daylight Time),1746817816415,8.80045,6,-OPqUA1y9HF7iz38hfyT,4
1,32,,"The image shows a man wearing a gray and white striped hooded sweatshirt and a baseball cap. He is outdoors, mid-motion, preparing to throw a frisbee. The background features a dirt path and sparse vegetation, suggesting a natural, open area. The lighting appears somewhat muted, indicating it may be in the late afternoon or evening.",caption_gpt4o,"A man wearing a baseball hat and a jacket is standing in a sandy area, poised to throw a frisbee. He is near a road, preparing for the toss while maintaining a casual stance.",caption_composite,1746818344442,2,preference.json,english,caption_composite,sampled_images_corrected_format_2/000000403349.jpg,20.551,caption_gpt4o,left,['left'],Fri May 09 2025 15:10:16 GMT-0400 (Eastern Daylight Time),1746817816415,8.80045,7,-OPqUA1y9HF7iz38hfyT,4
1,32,,"The image shows a surfer riding a wave. The surfer is positioned on a surfboard, leaning back and turning towards the wave. The water is green with white foam at the crest of the wave. The background consists of more ocean and a muted sky. The surfer is wearing a wetsuit with visible branding and has a helmet on.",caption_gpt4o,A surfer catches a wave and spins around.,caption_coco,1746818344442,2,preference.json,english,caption_gpt4o,sampled_images_corrected_format_2/000000537300.jpg,18.671,caption_coco,right,['right'],Fri May 09 2025 15:10:16 GMT-0400 (Eastern Daylight Time),1746817816415,8.80045,8,-OPqUA1y9HF7iz38hfyT,4
1,32,,"The image shows two bears engaged in physical interaction on a grassy area. One bear is positioned to the left, exhibiting a lighter brown color, while the other bear, located to the right, is darker. They are situated near a rocky outcropping, with tall grass surrounding them. The setting appears to be natural and outdoors.",caption_gpt4o,"In a wide and open area, two young bears can be observed engaging in a playful fight with each other. These bears, full of youthful energy and enthusiasm, are wrestling and tumbling around as they seem to enjoy their time together in this expansive outdoor space. Their playful antics involve a variety of moves, as they interact in a way that is characteristic of their age and species.",caption_verbose,1746818344442,2,preference.json,english,caption_verbose,sampled_images_corrected_format_2/000000377282.jpg,20.247,caption_gpt4o,left,['left'],Fri May 09 2025 15:10:16 GMT-0400 (Eastern Daylight Time),1746817816415,8.80045,9,-OPqUA1y9HF7iz38hfyT,4
1,32,,A fenced in area with a grass field and three zebra together near four green poles.,caption_coco,"The image shows two zebras running in a grassy area. They have distinct black and white stripes. In the background, there are tall green poles, and a fenced area is visible. A vehicle, painted with a similar black and white striped pattern, is parked nearby. The sky is clear, with some clouds, and there are trees in the background.",caption_gpt4o,1746818344442,2,preference.json,english,caption_coco,sampled_images_corrected_format_2/000000489995.jpg,16.719,caption_gpt4o,right,['right'],Fri May 09 2025 15:10:16 GMT-0400 (Eastern Daylight Time),1746817816415,8.80045,10,-OPqUA1y9HF7iz38hfyT,4
1,32,,A horse in a field has a striped blanket on it.,caption_coco,"A brown horse is standing in a fenced area, wearing a striped horse blanket. This horse is positioned in the grass of a field, next to a fence, and is shown within a pen. The blanket covers the horse as it stands still in its designated space.",caption_composite,1746818344442,2,preference.json,english,caption_coco,sampled_images_corrected_format_2/000000526035.jpg,9.279,caption_composite,right,['right'],Fri May 09 2025 15:10:16 GMT-0400 (Eastern Daylight Time),1746817816415,8.80045,11,-OPqUA1y9HF7iz38hfyT,4
1,32,,"The image shows a black suitcase with a textured surface. It is positioned on a pink carpet. Resting on top of the suitcase is a DVD case for the film ""Gladiator."" The DVD case is slightly angled, displaying the cover art prominently. There are no other objects or features visible in the image.",caption_gpt4o,"A suitcase is positioned on its side, with a DVD titled ""Gladiator"" resting atop it. Next to the suitcase, a travel luggage bag includes the Gladiator movie DVD case prominently displayed. Additionally, a computer case features the same Gladiator DVD placed on top of it.",caption_composite,1746818344442,2,preference.json,english,caption_composite,sampled_images_corrected_format_2/000000272097.jpg,20.727,caption_gpt4o,left,['left'],Fri May 09 2025 15:10:16 GMT-0400 (Eastern Daylight Time),1746817816415,8.80045,12,-OPqUA1y9HF7iz38hfyT,4
1,32,,"The image shows a giraffe standing among greenery. The giraffe is facing away from the viewer, with a long neck extending upwards. Its body is covered in a pattern of brown and cream patches. The surrounding area consists of low bushes and trees, creating a natural habitat. The background is blurred, focusing attention on the giraffe.",caption_gpt4o,A giraffe seen from a distance through trees,caption_coco,1746818344442,2,preference.json,english,caption_gpt4o,sampled_images_corrected_format_2/000000345826.jpg,16.839,caption_coco,right,['right'],Fri May 09 2025 15:10:16 GMT-0400 (Eastern Daylight Time),1746817816415,8.80045,13,-OPqUA1y9HF7iz38hfyT,4
1,32,,"A tree filled with many birds under a blue sky features a group of large red birds, as well as several parakeets, perched in the top branches. These birds are sitting together, creating a lively scene among the treetops.",caption_composite,Many birds sit in the top branches of a tree. ,caption_coco,1746818344442,2,preference.json,english,caption_coco,sampled_images_corrected_format_2/000000056134.jpg,18.047,caption_composite,left,"['right', 'left']",Fri May 09 2025 15:10:16 GMT-0400 (Eastern Daylight Time),1746817816415,8.80045,14,-OPqUA1y9HF7iz38hfyT,4
1,32,,Many black and white cows are standing in a row,caption_coco,"A considerable number of cows that are predominantly black and white in color are positioned in a straight line, creating a visual arrangement where they stand next to one another in an orderly fashion.",caption_verbose,1746818344442,2,preference.json,english,caption_verbose,sampled_images_corrected_format_2/000000032909.jpg,7.688,caption_coco,left,['left'],Fri May 09 2025 15:10:16 GMT-0400 (Eastern Daylight Time),1746817816415,8.80045,15,-OPqUA1y9HF7iz38hfyT,4
